time,seconds_elapsed,z,y,x
1747558300838020000,0.05002001953125,0.002842515707015991,-0.031688690185546875,0.14030864834785461
1747558300848020000,0.06002001953125,0.00975540280342102,-0.021820068359375,0.16609573364257812
1747558300858020000,0.07002001953125,0.009508997201919556,-0.023942947387695312,0.18222087621688843
1747558300868020000,0.08002001953125,0.004533261060714722,-0.03324413299560547,0.19576194882392883
1747558300878020000,0.09002001953125,-0.0017038583755493164,-0.04287242889404297,0.2028796374797821
1747558300888020000,0.10002001953125,-0.021691590547561646,-0.05491065979003906,0.19804009795188904
1747558300898020000,0.11002001953125,-0.05257248878479004,-0.06224536895751953,0.1927063763141632
1747558300908020000,0.12002001953125,-0.0899035632610321,-0.0648355484008789,0.1796209216117859
1747558300918020000,0.13002001953125,-0.12049540877342224,-0.07222843170166016,0.16618132591247559
1747558300928020000,0.14002001953125,-0.13192835450172424,-0.06754589080810547,0.1621086597442627
1747558300938020000,0.15002001953125,-0.13045504689216614,-0.06762218475341797,0.16001904010772705
1747558300948020000,0.16002001953125,-0.12461131811141968,-0.07250308990478516,0.16680413484573364
1747558300958020000,0.17002001953125,-0.1159314215183258,-0.06789207458496094,0.1797451674938202
1747558300968020000,0.18002001953125,-0.10899403691291809,-0.06331443786621094,0.19246932864189148
1747558300978020000,0.19002001953125,-0.0970207154750824,-0.058685302734375,0.1701490581035614
1747558300988020000,0.20002001953125,-0.0800885558128357,-0.05159568786621094,0.11842122673988342
1747558300998020000,0.21002001953125,-0.05951690673828125,-0.05396080017089844,0.05837944149971008
1747558301008020000,0.22002001953125,-0.0413452684879303,-0.05393695831298828,0.0028600692749023438
1747558301018020000,0.23002001953125,-0.032217979431152344,-0.044402122497558594,-0.02704554796218872
1747558301028020000,0.24002001953125,-0.02044278383255005,-0.042110443115234375,-0.026749789714813232
1747558301038020000,0.25002001953125,-0.018188565969467163,-0.03506183624267578,0.004036426544189453
1747558301048020000,0.26002001953125,-0.03467181324958801,-0.02801799774169922,0.035253673791885376
1747558301058020000,0.27002001953125,-0.0553758442401886,-0.020934104919433594,0.06750935316085815
1747558301068020000,0.28002001953125,-0.06893178820610046,-0.009021759033203125,0.08616292476654053
1747558301078020000,0.29002001953125,-0.07210633158683777,-0.013780593872070312,0.10545036196708679
1747558301088020000,0.30002001953125,-0.06589987874031067,-0.016127586364746094,0.11014673113822937
1747558301098020000,0.31002001953125,-0.051957279443740845,-0.018537521362304688,0.11690464615821838
1747558301108020000,0.32002001953125,-0.03548780083656311,-0.023349761962890625,0.11831745505332947
1747558301118020000,0.33002001953125,-0.016272783279418945,-0.021033287048339844,0.1169101893901825
1747558301128020000,0.34002001953125,0.008036017417907715,-0.021120071411132812,0.11303016543388367
1747558301138020000,0.35002001953125,0.020666927099227905,-0.028417587280273438,0.11144813895225525
1747558301148020000,0.36002001953125,0.019611865282058716,-0.040546417236328125,0.10971242189407349
1747558301158020000,0.37002001953125,0.0020540058612823486,-0.05506420135498047,0.10796061158180237
1747558301168020000,0.38002001953125,-0.02740064263343811,-0.06960201263427734,0.1154986023902893
1747558301178020000,0.39002001953125,-0.06659311056137085,-0.08413887023925781,0.12980535626411438
1747558301188020000,0.40002001953125,-0.10614916682243347,-0.09870529174804688,0.14619535207748413
1747558301198020000,0.41002001953125,-0.12727409601211548,-0.10365867614746094,0.1599424183368683
1747558301208020000,0.42002001953125,-0.12804070115089417,-0.09896183013916016,0.16218435764312744
1747558301218020000,0.43002001953125,-0.09749534726142883,-0.08933544158935547,0.15367838740348816
1747558301228020000,0.44002001953125,-0.045989006757736206,-0.07726669311523438,0.1332978904247284
1747558301238020000,0.45002001953125,-0.0035381317138671875,-0.06523799896240234,0.12234336137771606
1747558301248020000,0.46002001953125,0.013792663812637329,-0.046085357666015625,0.11825782060623169
1747558301258020000,0.47002001953125,0.008368909358978271,-0.026999473571777344,0.11661648750305176
1747558301268020000,0.48002001953125,-0.008375346660614014,-0.015112876892089844,0.11468261480331421
1747558301278020000,0.49002001953125,-0.02033698558807373,-0.012835502624511719,0.12665072083473206
1747558301288020000,0.50002001953125,-0.02792990207672119,-0.0033254623413085938,0.1274491548538208
1747558301298020000,0.51002001953125,-0.018726617097854614,0.00141143798828125,0.1283794343471527
1747558301308020000,0.52002001953125,-0.0022185444831848145,-0.0034284591674804688,0.11750850081443787
1747558301318020000,0.53002001953125,0.014737546443939209,-0.0034942626953125,0.09469926357269287
1747558301328020000,0.54002001953125,0.015941083431243896,-0.0084075927734375,0.078815758228302
1747558301338020000,0.55002001953125,-0.00310322642326355,-0.015859603881835938,0.0896264910697937
1747558301348020000,0.56002001953125,-0.035939931869506836,-0.020904541015625,0.10156592726707458
1747558301358020000,0.57002001953125,-0.07194939255714417,-0.028250694274902344,0.10505843162536621
1747558301368020000,0.58002001953125,-0.09011897444725037,-0.04026603698730469,0.10464519262313843
1747558301378020000,0.59002001953125,-0.0790603756904602,-0.04981422424316406,0.09266689419746399
1747558301388020000,0.60002001953125,-0.05685731768608093,-0.052132606506347656,0.07119739055633545
1747558301398020000,0.61002001953125,-0.031861722469329834,-0.05446338653564453,0.061363399028778076
1747558301408020000,0.62002001953125,-0.018318921327590942,-0.06407451629638672,0.07451134920120239
1747558301418020000,0.63002001953125,-0.02332475781440735,-0.06415271759033203,0.079912930727005
1747558301428020000,0.64002001953125,-0.044063299894332886,-0.0714426040649414,0.08814093470573425
1747558301438020000,0.65002001953125,-0.06536152958869934,-0.08107185363769531,0.09905305504798889
1747558301448020000,0.66002001953125,-0.0753682553768158,-0.09065437316894531,0.10087153315544128
1747558301458020000,0.67002001953125,-0.06936696171760559,-0.08580970764160156,0.08421528339385986
1747558301468020000,0.68002001953125,-0.049991220235824585,-0.08569526672363281,0.05103549361228943
1747558301478020000,0.69002001953125,-0.03498217463493347,-0.08081722259521484,0.020428448915481567
1747558301488020000,0.70002001953125,-0.024109184741973877,-0.07596874237060547,0.003835916519165039
1747558301498020000,0.71002001953125,-0.016629934310913086,-0.06882381439208984,-0.004055112600326538
1747558301508020000,0.72002001953125,-0.02076748013496399,-0.059334754943847656,-0.0003656148910522461
1747558301518020000,0.73002001953125,-0.03485679626464844,-0.04743480682373047,0.007990717887878418
1747558301528020000,0.74002001953125,-0.04266542196273804,-0.03787994384765625,0.018682777881622314
1747558301538020000,0.75002001953125,-0.04872167110443115,-0.03548145294189453,0.051053017377853394
1747558301548020000,0.76002001953125,-0.036124616861343384,-0.03544902801513672,0.07181113958358765
1747558301558020000,0.77002001953125,-0.014086991548538208,-0.030570030212402344,0.06968554854393005
1747558301568020000,0.78002001953125,0.003790050745010376,-0.028018951416015625,0.033448368310928345
1747558301578020000,0.79002001953125,0.01040390133857727,-0.027894020080566406,-0.009803593158721924
1747558301588020000,0.80002001953125,0.005245506763458252,-0.030219078063964844,-0.04451191425323486
1747558301598020000,0.81002001953125,-0.014078527688980103,-0.039795875549316406,-0.05441838502883911
1747558301608020000,0.82002001953125,-0.035509705543518066,-0.047057151794433594,-0.04880785942077637
1747558301618020000,0.83002001953125,-0.045056700706481934,-0.05434226989746094,-0.01745966076850891
1747558301628020000,0.84002001953125,-0.04782852530479431,-0.0496368408203125,0.018592476844787598
1747558301638020000,0.85002001953125,-0.05077275633811951,-0.047306060791015625,0.04325580596923828
1747558301648020000,0.86002001953125,-0.056049227714538574,-0.04013538360595703,0.06878158450126648
1747558301658020000,0.87002001953125,-0.05427256226539612,-0.02337932586669922,0.08235183358192444
1747558301668020000,0.88002001953125,-0.03342530131340027,-0.016188621520996094,0.07694530487060547
1747558301678020000,0.89002001953125,-0.0009232461452484131,-0.013790130615234375,0.062212735414505005
1747558301688020000,0.90002001953125,0.026831895112991333,-0.013726234436035156,0.0479772686958313
1747558301698020000,0.91002001953125,0.04136836528778076,-0.013720512390136719,0.03417116403579712
1747558301708020000,0.92002001953125,0.04025396704673767,-0.028113365173339844,0.034489721059799194
1747558301718020000,0.93002001953125,0.02117401361465454,-0.042634010314941406,0.04553338885307312
1747558301728020000,0.94002001953125,0.004778474569320679,-0.04759693145751953,0.05872723460197449
1747558301738020000,0.95002001953125,-0.019364923238754272,-0.05733680725097656,0.06453883647918701
1747558301748020000,0.96002001953125,-0.04153907299041748,-0.06705474853515625,0.07710281014442444
1747558301758020000,0.97002001953125,-0.061604201793670654,-0.07920455932617188,0.08432373404502869
1747558301768020000,0.98002001953125,-0.07303017377853394,-0.08650684356689453,0.08223375678062439
1747558301778020000,0.99002001953125,-0.0803217887878418,-0.0889596939086914,0.07321897149085999
1747558301788020000,1.00002001953125,-0.07664543390274048,-0.08899211883544922,0.0667451024055481
1747558301798020000,1.01002001953125,-0.06469836831092834,-0.07938480377197266,0.04848143458366394
1747558301808020000,1.02002001953125,-0.02726912498474121,-0.06493377685546875,0.025866270065307617
1747558301818020000,1.03002001953125,0.009960830211639404,-0.050446510314941406,0.015138834714889526
1747558301828020000,1.04002001953125,0.022459685802459717,-0.03846931457519531,0.008671373128890991
1747558301838020000,1.05002001953125,0.010698795318603516,-0.0313720703125,0.004710942506790161
1747558301848020000,1.06002001953125,-0.01194879412651062,-0.02671337127685547,0.017427831888198853
1747558301858020000,1.07002001953125,-0.03456714749336243,-0.019675254821777344,0.04655689001083374
1747558301868020000,1.08002001953125,-0.05018267035484314,-0.012605667114257812,0.0735693871974945
1747558301878020000,1.09002001953125,-0.05163052678108215,-0.005512237548828125,0.07981500029563904
1747558301888020000,1.10002001953125,-0.036382973194122314,0.004009246826171875,0.0793927013874054
1747558301898020000,1.11002001953125,-0.011346161365509033,0.015915870666503906,0.06216156482696533
1747558301908020000,1.12002001953125,0.011154413223266602,0.023044586181640625,0.042707234621047974
1747558301918020000,1.13002001953125,0.031615614891052246,0.03014850616455078,0.03272709250450134
1747558301928020000,1.14002001953125,0.04830050468444824,0.032405853271484375,0.015035361051559448
1747558301938020000,1.15002001953125,0.05335018038749695,0.022681236267089844,0.006989717483520508
1747558301948020000,1.16002001953125,0.049422502517700195,0.01773357391357422,0.011063247919082642
1747558301958020000,1.17002001953125,0.04127046465873718,0.010354042053222656,0.008145898580551147
1747558301968020000,1.18002001953125,0.016558349132537842,-0.016172409057617188,0.014792203903198242
1747558301978020000,1.19002001953125,-0.008216619491577148,-0.04031085968017578,0.023543059825897217
1747558301988020000,1.20002001953125,-0.02391892671585083,-0.05484771728515625,0.03710165619850159
1747558301998020000,1.21002001953125,-0.026429742574691772,-0.07653331756591797,0.05058160424232483
1747558302008020000,1.22002001953125,-0.03210046887397766,-0.09337902069091797,0.04499971866607666
1747558302018020000,1.23002001953125,-0.04243484139442444,-0.09586143493652344,0.03746640682220459
1747558302028020000,1.24002001953125,-0.05033844709396362,-0.10074043273925781,0.03435060381889343
1747558302038020000,1.25002001953125,-0.05438479781150818,-0.09601688385009766,0.038118720054626465
1747558302048020000,1.26002001953125,-0.04281771183013916,-0.09366703033447266,0.03205868601799011
1747558302058020000,1.27002001953125,-0.017820030450820923,-0.084075927734375,0.02638036012649536
1747558302068020000,1.28002001953125,0.011604785919189453,-0.08641719818115234,0.013972997665405273
1747558302078020000,1.29002001953125,0.027132630348205566,-0.08398056030273438,-0.0052332282066345215
1747558302088020000,1.30002001953125,0.033951371908187866,-0.08636665344238281,0.0015954673290252686
1747558302098020000,1.31002001953125,0.024728208780288696,-0.09121131896972656,0.024442076683044434
1747558302108020000,1.32002001953125,0.00679972767829895,-0.0817413330078125,0.042249828577041626
1747558302118020000,1.33002001953125,-0.0037055611610412598,-0.07945919036865234,0.06487870216369629
1747558302128020000,1.34002001953125,0.00809970498085022,-0.07709598541259766,0.0853913426399231
1747558302138020000,1.35002001953125,0.032999187707901,-0.0698843002319336,0.08972615003585815
1747558302148020000,1.36002001953125,0.050679802894592285,-0.06740283966064453,0.07599279284477234
1747558302158020000,1.37002001953125,0.04798659682273865,-0.07455158233642578,0.052553802728652954
1747558302168020000,1.38002001953125,0.029362887144088745,-0.067352294921875,0.01752486824989319
1747558302178020000,1.39002001953125,0.02251666784286499,-0.06254100799560547,-0.0174102783203125
1747558302188020000,1.40002001953125,0.02180647850036621,-0.06248760223388672,-0.0384179949760437
1747558302198020000,1.41002001953125,0.022699624300003052,-0.050467491149902344,-0.04339084029197693
1747558302208020000,1.42002001953125,0.023125439882278442,-0.04564952850341797,-0.039707720279693604
1747558302218020000,1.43002001953125,0.02865472435951233,-0.03846263885498047,-0.017651110887527466
1747558302228020000,1.44002001953125,0.03199848532676697,-0.036108970642089844,0.013356328010559082
1747558302238020000,1.45002001953125,0.03820726275444031,-0.03380584716796875,0.0415855348110199
1747558302248020000,1.46002001953125,0.04726502299308777,-0.02431201934814453,0.06511369347572327
1747558302258020000,1.47002001953125,0.05900046229362488,-0.021982192993164062,0.08225363492965698
1747558302268020000,1.48002001953125,0.07771921157836914,-0.0148468017578125,0.08782967925071716
1747558302278020000,1.49002001953125,0.09660917520523071,-0.010095596313476562,0.074734628200531
1747558302288020200,1.500020263671875,0.1922878623008728,-0.005331993103027344,0.004624456167221069
1747558302301967400,1.51396728515625,0.1777001917362213,-0.014926910400390625,-0.04174625873565674
1747558302311967500,1.523967529296875,0.06966358423233032,-0.05087852478027344,0.00021949410438537598
1747558302321967400,1.53396728515625,-0.07064005732536316,-0.0988779067993164,0.03703853487968445
1747558302331967500,1.543967529296875,-0.14464083313941956,-0.12297916412353516,0.049786925315856934
1747558302341967400,1.55396728515625,-0.14632338285446167,-0.12076282501220703,0.03166589140892029
1747558302351967500,1.563967529296875,-0.06030893325805664,-0.08736515045166016,0.04037994146347046
1747558302361967400,1.57396728515625,0.030946344137191772,-0.08261585235595703,0.046990007162094116
1747558302371967500,1.583967529296875,0.10250848531723022,-0.03233814239501953,0.05624037981033325
1747558302381967400,1.59396728515625,0.17854219675064087,0.013174057006835938,0.08935821056365967
1747558302391967500,1.603967529296875,0.19750148057937622,-0.010798454284667969,0.040515244007110596
1747558302401967400,1.61396728515625,0.17878302931785583,-0.0036716461181640625,0.02301645278930664
1747558302411967500,1.623967529296875,0.09103754162788391,0.008253097534179688,-0.0061047375202178955
1747558302421967400,1.63396728515625,0.051519185304641724,0.0058193206787109375,0.010786771774291992
1747558302431967500,1.643967529296875,0.010116010904312134,0.005780220031738281,0.011374205350875854
1747558302441967400,1.65396728515625,0.022467583417892456,0.02491283416748047,0.040295183658599854
1747558302451967500,1.663967529296875,0.16343435645103455,0.02492809295654297,0.05931496620178223
1747558302461967400,1.67396728515625,0.25753509998321533,0.017785072326660156,0.075542151927948
1747558302471967500,1.683967529296875,0.18572509288787842,-0.020455360412597656,0.048220425844192505
1747558302481967400,1.69396728515625,0.026833057403564453,-0.08757400512695312,0.05962330102920532
1747558302491967500,1.703967529296875,-0.1317167580127716,-0.10453414916992188,0.02281332015991211
1747558302501967400,1.71396728515625,-0.26656243205070496,-0.15034103393554688,0.03568682074546814
1747558302511967500,1.723967529296875,-0.29644787311553955,-0.14823055267333984,0.07977291941642761
1747558302521967400,1.73396728515625,-0.22326427698135376,-0.11252403259277344,0.11927813291549683
1747558302531967500,1.743967529296875,-0.06895604729652405,-0.07906627655029297,0.09911122918128967
1747558302541967400,1.75396728515625,0.12149432301521301,-0.06468582153320312,0.04126870632171631
1747558302551967500,1.763967529296875,0.20985421538352966,-0.062172889709472656,0.0320206880569458
1747558302561967400,1.77396728515625,0.1718190312385559,-0.08600997924804688,0.011098891496658325
1747558302571967500,1.783967529296875,0.06924042105674744,-0.10277652740478516,-0.0604071319103241
1747558302581967400,1.79396728515625,-0.0014478564262390137,-0.10523033142089844,-0.015286415815353394
1747558302591967500,1.803967529296875,-0.026834815740585327,-0.10529232025146484,-0.0066141486167907715
1747558302601967400,1.81396728515625,-0.031556010246276855,-0.09097576141357422,0.09782791137695312
1747558302611967500,1.823967529296875,-0.029948562383651733,-0.07181835174560547,0.08265987038612366
1747558302621967400,1.83396728515625,-0.06694266200065613,-0.06939029693603516,0.04641222953796387
1747558302631967500,1.843967529296875,-0.11080402135848999,-0.04542064666748047,0.036966025829315186
1747558302641967400,1.85396728515625,-0.1019163727760315,-0.03818321228027344,-0.0009667873382568359
1747558302651967500,1.863967529296875,-0.0483095645904541,-0.030943870544433594,0.05411854386329651
1747558302661967400,1.87396728515625,0.04805353283882141,-0.009349822998046875,0.0511263906955719
1747558302671967500,1.883967529296875,0.12498626112937927,0.05534172058105469,0.11042612791061401
1747558302681967400,1.89396728515625,0.18240851163864136,0.04105854034423828,0.05488047003746033
1747558302691967500,1.903967529296875,0.20902708172798157,0.06029701232910156,0.03790038824081421
1747558302701967400,1.91396728515625,0.16973170638084412,0.05314064025878906,0.035386353731155396
1747558302711967500,1.923967529296875,0.1437211036682129,-0.01154327392578125,-0.022587686777114868
1747558302721967400,1.93396728515625,0.06459552049636841,0.002727508544921875,-0.01842615008354187
1747558302731967500,1.943967529296875,-0.01160043478012085,-0.06207084655761719,0.08109977841377258
1747558302741967400,1.95396728515625,-0.06146863102912903,-0.04788684844970703,0.1775985062122345
1747558302751967500,1.963967529296875,-0.09509530663490295,-0.0935201644897461,0.2212628871202469
1747558302761967400,1.97396728515625,-0.1554226130247116,-0.09604740142822266,0.15284781157970428
1747558302771967500,1.983967529296875,-0.220502108335495,-0.07457923889160156,0.03764408826828003
1747558302781967400,1.99396728515625,-0.18515551090240479,-0.09376144409179688,-0.16252511739730835
1747558302791967500,2.003967529296875,-0.12956571578979492,-0.08414363861083984,-0.27538636326789856
1747558302801967400,2.01396728515625,0.01777970790863037,-0.11278247833251953,-0.23105335235595703
1747558302811967500,2.023967529296875,0.13757452368736267,-0.0887613296508789,-0.10926789045333862
1747558302821967400,2.03396728515625,0.18127748370170593,-0.06720256805419922,0.020938456058502197
1747558302831967500,2.043967529296875,0.16393181681632996,-0.03135871887207031,0.11663898825645447
1747558302841967400,2.05396728515625,0.02127629518508911,-0.031490325927734375,0.20707184076309204
1747558302851967500,2.063967529296875,-0.05066487193107605,-0.03648853302001953,0.22334173321723938
1747558302861967400,2.07396728515625,-0.15569442510604858,-0.015095710754394531,0.16651040315628052
1747558302871967500,2.083967529296875,-0.15865445137023926,-0.039145469665527344,0.04839080572128296
1747558302881967400,2.09396728515625,-0.1484130173921585,0.0063343048095703125,0.08673864603042603
1747558302891967500,2.103967529296875,-0.1488104909658432,0.006346702575683594,0.08690464496612549
1747558302901967400,2.11396728515625,0.12939882278442383,0.013632774353027344,-0.06062689423561096
1747558302911967500,2.123967529296875,0.2600894272327423,0.023370742797851562,-0.021492570638656616
1747558302921967400,2.13396728515625,0.22099167108535767,0.018724441528320312,0.0003694295883178711
1747558302931967500,2.143967529296875,0.10335692763328552,-0.0076198577880859375,0.02660772204399109
1747558302941967400,2.15396728515625,-0.05778351426124573,-0.005298614501953125,0.019035816192626953
1747558302951967500,2.163967529296875,-0.2079135626554489,-0.022182464599609375,-0.012266486883163452
1747558302961967400,2.17396728515625,-0.24587884545326233,-0.04622173309326172,-0.00014349818229675293
1747558302971967500,2.183967529296875,-0.1677747517824173,-0.02713298797607422,0.030770719051361084
1747558302981967400,2.19396728515625,-0.04811197519302368,-0.036719322204589844,0.013415932655334473
1747558302991967500,2.203967529296875,0.03726968169212341,-0.043900489807128906,0.0033151209354400635
1747558303001967400,2.21396728515625,0.12466827034950256,-0.04384899139404297,0.020034760236740112
1747558303011967500,2.223967529296875,0.13824963569641113,-0.070159912109375,0.022591471672058105
1747558303021967400,2.23396728515625,0.10263094305992126,-0.050994873046875,0.04218611121177673
1747558303031967500,2.243967529296875,0.04376170039176941,-0.05820655822753906,0.01381722092628479
1747558303041967400,2.25396728515625,0.030729174613952637,-0.041480064392089844,-0.050549447536468506
1747558303051967500,2.263967529296875,0.02956366539001465,-0.06307411193847656,-0.04082536697387695
1747558303061967400,2.27396728515625,-0.0078033506870269775,-0.05833721160888672,0.02074292302131653
1747558303071967500,2.283967529296875,-0.05649697780609131,-0.05604076385498047,0.034052491188049316
1747558303081967400,2.29396728515625,-0.09315407276153564,-0.1183919906616211,0.009159177541732788
1747558303091967500,2.303967529296875,-0.10163930058479309,-0.03707695007324219,0.0437222421169281
1747558303101967400,2.31396728515625,-0.050829142332077026,-0.07304954528808594,0.10973288118839264
1747558303111967500,2.323967529296875,-0.010505884885787964,-0.08742046356201172,0.08530807495117188
1747558303121967400,2.33396728515625,0.05308833718299866,-0.032291412353515625,-0.033980876207351685
1747558303131967500,2.343967529296875,0.10928604006767273,-0.02741718292236328,-0.025595933198928833
1747558303141967400,2.35396728515625,0.09495264291763306,-0.06331253051757812,-0.06825697422027588
1747558303151967500,2.363967529296875,0.012344211339950562,-0.048996925354003906,-0.053507715463638306
1747558303161967400,2.37396728515625,-0.016861140727996826,-0.037064552307128906,-0.012430459260940552
1747558303171967500,2.383967529296875,-0.036310791969299316,-0.022782325744628906,-0.024408161640167236
1747558303181967400,2.39396728515625,-0.10612931847572327,-0.013278007507324219,-0.0077142417430877686
1747558303191967500,2.403967529296875,-0.1282239407300949,-0.01094818115234375,0.0019359588623046875
1747558303201967400,2.41396728515625,-0.07668665051460266,-0.027756690979003906,0.009311139583587646
1747558303211967500,2.423967529296875,-0.00918811559677124,-0.011010169982910156,0.0596081018447876
1747558303221967400,2.43396728515625,-0.0289592444896698,-0.02293682098388672,0.004843950271606445
1747558303231967500,2.443967529296875,0.0015706121921539307,-0.03248405456542969,0.058185964822769165
1747558303241967400,2.45396728515625,0.0370335578918457,-0.032436370849609375,0.053770750761032104
1747558303251967500,2.463967529296875,0.044091641902923584,-0.032421112060546875,-0.029568910598754883
1747558303261967400,2.47396728515625,0.010514974594116211,-0.05633354187011719,-0.05033114552497864
1747558303271967500,2.483967529296875,-0.020509690046310425,-0.04675102233886719,0.0052329301834106445
1747558303281967400,2.49396728515625,-0.0436798632144928,-0.03959369659423828,0.017394185066223145
1747558303291967500,2.503967529296875,-0.0639282763004303,-0.0492095947265625,0.04106032848358154
1747558303301967400,2.51396728515625,-0.04880437254905701,-0.06361579895019531,0.1150476485490799
1747558303311967500,2.523967529296875,0.0018096864223480225,-0.061257362365722656,0.1289706826210022
1747558303321967400,2.53396728515625,0.01836216449737549,-0.030121803283691406,0.07835280895233154
1747558303331967500,2.543967529296875,-0.03937631845474243,-0.085174560546875,0.06904372572898865
1747558303341967400,2.55396728515625,-0.08012655377388,-0.12107086181640625,0.06218203902244568
1747558303351967500,2.563967529296875,-0.11829818785190582,-0.13064861297607422,0.040809571743011475
1747558303361967400,2.57396728515625,-0.19719693064689636,-0.13306427001953125,0.038213133811950684
1747558303371967500,2.583967529296875,-0.2138812392950058,-0.17139148712158203,0.08312046527862549
1747558303381967400,2.59396728515625,-0.18036331236362457,-0.18100452423095703,0.08929362893104553
1747558303391967500,2.603967529296875,-0.15226446092128754,-0.14270305633544922,0.09790858626365662
1747558303401967400,2.61396728515625,-0.05976209044456482,-0.0661001205444336,-0.027378708124160767
1747558303411967500,2.623967529296875,0.08974108099937439,-0.027608871459960938,-0.17697250843048096
1747558303421967400,2.63396728515625,0.18509441614151,0.0301361083984375,-0.3255664110183716
1747558303431967500,2.643967529296875,0.23966771364212036,-0.0055294036865234375,-0.29742202162742615
1747558303441967400,2.65396728515625,0.23517537117004395,0.004279136657714844,-0.28912702202796936
1747558303451967500,2.663967529296875,0.20130258798599243,-0.005161285400390625,-0.10123568773269653
1747558303461967400,2.67396728515625,0.18059679865837097,-0.04579639434814453,0.09297725558280945
1747558303471967500,2.683967529296875,0.04895985126495361,-0.08889102935791016,0.07133710384368896
1747558303481967400,2.69396728515625,-0.12852293252944946,-0.10810279846191406,-0.018962472677230835
1747558303491967500,2.703967529296875,-0.2511845529079437,-0.15131759643554688,-0.07766571640968323
1747558303501967400,2.71396728515625,-0.3566787838935852,-0.12750816345214844,-0.13373684883117676
1747558303511967500,2.723967529296875,-0.40774229168891907,-0.1227874755859375,-0.19381052255630493
1747558303521967400,2.73396728515625,-0.36055445671081543,-0.08931350708007812,-0.2555710971355438
1747558303531967500,2.743967529296875,-0.2487511783838272,-0.0701589584350586,-0.21582797169685364
1747558303541967400,2.75396728515625,-0.1494990736246109,-0.01745128631591797,-0.17090514302253723
1747558303551967500,2.763967529296875,-0.07936170697212219,0.0017499923706054688,-0.24549421668052673
1747558303561967400,2.77396728515625,-0.039007484912872314,0.018640518188476562,-0.22369158267974854
1747558303571967500,2.783967529296875,-0.0735991895198822,0.023568153381347656,-0.24028700590133667
1747558303581967400,2.79396728515625,-0.0604211688041687,0.03569221496582031,-0.20172056555747986
1747558303591967500,2.803967529296875,-0.0477864146232605,0.047827720642089844,-0.13479632139205933
1747558303601967400,2.81396728515625,-0.02361440658569336,0.031248092651367188,-0.12540453672409058
1747558303611967500,2.823967529296875,-0.013967156410217285,-0.004487037658691406,-0.04692220687866211
1747558303621967400,2.83396728515625,-0.03545272350311279,-0.03308582305908203,-0.057822078466415405
1747558303631967500,2.843967529296875,-0.006446391344070435,-0.08801555633544922,-0.09277266263961792
1747558303641967400,2.85396728515625,-0.014992684125900269,-0.09989547729492188,-0.1256418228149414
1747558303651967500,2.863967529296875,-0.11775632202625275,-0.07829952239990234,-0.28761017322540283
1747558303661967400,2.87396728515625,-0.2260521501302719,-0.1501150131225586,-0.35592329502105713
1747558303671967500,2.883967529296875,-0.34954380989074707,-0.1549234390258789,-0.3396153748035431
1747558303681967400,2.89396728515625,-0.4594295620918274,-0.2076272964477539,-0.33936819434165955
1747558303691967500,2.903967529296875,-0.4794514775276184,-0.23395061492919922,-0.2873448431491852
1747558303701967400,2.91396728515625,-0.4874784052371979,-0.24825096130371094,-0.24602320790290833
1747558303711967500,2.923967529296875,-0.43078798055648804,-0.27446937561035156,-0.19454967975616455
1747558303721967400,2.93396728515625,-0.40123775601387024,-0.26956653594970703,-0.22023236751556396
1747558303731967500,2.943967529296875,-0.18657296895980835,-0.2765693664550781,-0.3252905309200287
1747558303741967400,2.95396728515625,0.06842529773712158,-0.1876697540283203,-0.424393892288208
1747558303751967500,2.963967529296875,0.25521397590637207,-0.17045116424560547,-0.5227910876274109
1747558303761967400,2.97396728515625,0.2743222713470459,-0.18663787841796875,-0.5557862520217896
1747558303771967500,2.983967529296875,0.14704465866088867,-0.1788177490234375,-0.5590882301330566
1747558303781967400,2.99396728515625,-0.02902209758758545,-0.17099285125732422,-0.49985939264297485
1747558303791967500,3.003967529296875,-0.21980449557304382,-0.175262451171875,-0.35801613330841064
1747558303801967400,3.01396728515625,-0.40462973713874817,-0.17483901977539062,-0.20567160844802856
1747558303811967500,3.023967529296875,-0.5520095825195312,-0.14823246002197266,-0.10288846492767334
1747558303821967400,3.03396728515625,-0.5357725024223328,-0.09296798706054688,0.02239680290222168
1747558303831967500,3.043967529296875,-0.44621551036834717,-0.04492759704589844,0.06994974613189697
1747558303841967400,3.05396728515625,-0.18213263154029846,0.015141487121582031,0.13628888130187988
1747558303851967500,3.063967529296875,0.06538316607475281,0.039353370666503906,0.1319078803062439
1747558303861967400,3.07396728515625,0.3069622814655304,0.13537025451660156,0.16162583231925964
1747558303871967500,3.083967529296875,0.35516342520713806,0.1667194366455078,0.2730450928211212
1747558303881967400,3.09396728515625,0.30875617265701294,0.17879581451416016,0.303962767124176
1747558303891967500,3.103967529296875,0.26740792393684387,0.18117713928222656,0.3584136366844177
1747558303901967400,3.11396728515625,0.20890957117080688,0.16190624237060547,0.38098520040512085
1747558303911967500,3.123967529296875,0.20618656277656555,0.16176795959472656,0.37672609090805054
1747558303921967400,3.13396728515625,0.07932370901107788,0.0682058334350586,0.39830201864242554
1747558303931967500,3.143967529296875,-0.07226034998893738,0.02486419677734375,0.47255146503448486
1747558303941967400,3.15396728515625,-0.16933922469615936,0.017333030700683594,0.5169351100921631
1747558303951967500,3.163967529296875,-0.3111468553543091,-0.06213188171386719,0.48800185322761536
1747558303961967400,3.17396728515625,-0.3843599557876587,-0.031599998474121094,0.54128098487854
1747558303971967500,3.183967529296875,-0.3390086591243744,-0.06585979461669922,0.4364505410194397
1747558303981967400,3.19396728515625,-0.2725657820701599,-0.09528350830078125,0.35576164722442627
1747558303991967500,3.203967529296875,-0.16922259330749512,-0.1389780044555664,0.4173179566860199
1747558304001967400,3.21396728515625,-0.1800704300403595,-0.1012125015258789,0.24404431879520416
1747558304011967500,3.223967529296875,-0.2314046323299408,-0.14481735229492188,0.3134133219718933
1747558304021967400,3.23396728515625,-0.23943418264389038,-0.17165660858154297,0.3010469079017639
1747558304031967500,3.243967529296875,-0.2311611771583557,-0.184112548828125,0.31984424591064453
1747558304041967400,3.25396728515625,-0.20221301913261414,-0.2205181121826172,0.3760661780834198
1747558304051967500,3.263967529296875,-0.16923457384109497,-0.2497425079345703,0.4000812768936157
1747558304061967400,3.27396728515625,-0.18945640325546265,-0.2718019485473633,0.3587801456451416
1747558304071967500,3.283967529296875,-0.20051467418670654,-0.29616546630859375,0.3492041826248169
1747558304081967400,3.29396728515625,-0.26166823506355286,-0.3156900405883789,0.29134559631347656
1747558304091967500,3.303967529296875,-0.3847586214542389,-0.3183565139770508,0.32908058166503906
1747558304101967400,3.31396728515625,-0.3786424696445465,-0.2898530960083008,0.3199199438095093
1747558304111967500,3.323967529296875,-0.3771516680717468,-0.2565193176269531,0.26637569069862366
1747558304121967400,3.33396728515625,-0.3276107907295227,-0.16810131072998047,0.3089575171470642
1747558304131967500,3.343967529296875,-0.2290782332420349,-0.24018573760986328,0.36928486824035645
1747558304141967400,3.35396728515625,-0.4021121859550476,-0.20703887939453125,0.39117372035980225
1747558304151967500,3.363967529296875,-0.5827794671058655,-0.27461910247802734,0.40780484676361084
1747558304161967400,3.37396728515625,-0.8393421769142151,-0.1938323974609375,0.48329731822013855
1747558304171967500,3.383967529296875,-1.0661637783050537,-0.15627479553222656,0.4493696093559265
1747558304181967400,3.39396728515625,-1.2490460872650146,-0.03978919982910156,0.41718146204948425
1747558304191967500,3.403967529296875,-1.2354819774627686,0.055106163024902344,0.32410889863967896
1747558304201967400,3.41396728515625,-1.0175857543945312,0.18593692779541016,0.1660381257534027
1747558304211967500,3.423967529296875,-0.6810989379882812,0.2522134780883789,0.11556817591190338
1747558304221967400,3.43396728515625,-0.2837894856929779,0.34249114990234375,0.06515783071517944
1747558304231967500,3.443967529296875,0.07357054948806763,0.37062549591064453,0.10981003940105438
1747558304241967400,3.45396728515625,0.21715953946113586,0.346221923828125,0.20682430267333984
1747558304251967500,3.463967529296875,0.3498930335044861,0.23090744018554688,0.2530290186405182
1747558304261967400,3.47396728515625,0.258319228887558,0.21146678924560547,0.29343146085739136
1747558304271967500,3.483967529296875,0.004045769572257996,0.12744140625,0.3154521584510803
1747558304281967400,3.49396728515625,-0.23045651614665985,0.10329532623291016,0.30366671085357666
1747558304291967500,3.503967529296875,-0.3988599181175232,0.02164936065673828,0.2991562485694885
1747558304301967400,3.51396728515625,-0.49817222356796265,-0.000148773193359375,0.2929214537143707
1747558304311967500,3.523967529296875,-0.5705819129943848,-0.019575119018554688,0.2909869849681854
1747558304321967400,3.53396728515625,-0.5914142727851868,-0.07496452331542969,0.20123159885406494
1747558304331967500,3.543967529296875,-0.577226459980011,-0.1566753387451172,0.1514659821987152
1747558304341967400,3.55396728515625,-0.5709753036499023,-0.12822532653808594,0.1348024308681488
1747558304351967500,3.563967529296875,-0.5315455198287964,-0.027930259704589844,0.09891805797815323
1747558304361967400,3.57396728515625,-0.42950376868247986,-0.018563270568847656,0.10602379590272903
1747558304371967500,3.583967529296875,-0.32110682129859924,0.014824867248535156,0.11582417786121368
1747558304381967400,3.59396728515625,-0.30709993839263916,0.1057291030883789,0.12355946004390717
1747558304391967500,3.603967529296875,-0.3825736939907074,0.12483787536621094,0.21107026934623718
1747558304401967400,3.61396728515625,-0.3815624415874481,0.14161396026611328,0.3220931887626648
1747558304411967500,3.623967529296875,-0.39967501163482666,0.14885234832763672,0.3606342375278473
1747558304421967400,3.63396728515625,-0.3389943540096283,0.18487071990966797,0.42312341928482056
1747558304431967500,3.643967529296875,-0.24928370118141174,0.211334228515625,0.39317983388900757
1747558304441967400,3.65396728515625,-0.1467331051826477,0.2425975799560547,0.2680293023586273
1747558304451967500,3.663967529296875,-0.02689647674560547,0.29543495178222656,0.18050417304039001
1747558304461967400,3.67396728515625,0.0427776500582695,0.3602151870727539,0.10446575284004211
1747558304471967500,3.683967529296875,0.08954057097434998,0.42019176483154297,0.10971534997224808
1747558304481967400,3.69396728515625,0.04991583526134491,0.41552257537841797,0.1741863489151001
1747558304491967500,3.703967529296875,-0.031690433621406555,0.38452816009521484,0.2682046592235565
1747558304501967400,3.71396728515625,-0.09394201636314392,0.3918914794921875,0.28596943616867065
1747558304511967500,3.723967529296875,-0.14505349099636078,0.3873262405395508,0.2538678050041199
1747558304521967400,3.73396728515625,-0.04721564054489136,0.4354667663574219,0.20770898461341858
1747558304531967500,3.743967529296875,0.11663958430290222,0.3878364562988281,0.14442366361618042
1747558304541967400,3.75396728515625,0.22173166275024414,0.33061981201171875,0.1554439514875412
1747558304551967500,3.763967529296875,0.12840309739112854,0.3404560089111328,0.18999123573303223
1747558304561967400,3.77396728515625,-0.2766427993774414,0.4197864532470703,0.1812821626663208
1747558304571967500,3.783967529296875,-0.9810834527015686,0.4585409164428711,0.1454109251499176
1747558304581967400,3.79396728515625,-1.5125863552093506,0.40882396697998047,0.007661908864974976
1747558304591967500,3.803967529296875,-1.8543226718902588,0.6321887969970703,-0.03754880651831627
1747558304601967400,3.81396728515625,-1.5959440469741821,0.7353382110595703,-0.2450999617576599
1747558304611967500,3.823967529296875,-0.7842194437980652,0.9079437255859375,-0.3002259433269501
1747558304621967400,3.83396728515625,0.18293195962905884,0.8453245162963867,-0.4795593023300171
1747558304631967500,3.843967529296875,1.0854793787002563,0.7771987915039062,-0.5455982685089111
1747558304641967400,3.85396728515625,1.6992969512939453,0.6875820159912109,-0.6037099957466125
1747558304651967500,3.863967529296875,1.8461949825286865,0.6126546859741211,-0.6001800894737244
1747558304661967400,3.87396728515625,1.6025997400283813,0.5212764739990234,-0.6676517128944397
1747558304671967500,3.883967529296875,1.213507890701294,0.4660205841064453,-0.5584676861763
1747558304681967400,3.89396728515625,0.9290493726730347,0.4012870788574219,-0.2760390043258667
1747558304691967500,3.903967529296875,0.9733587503433228,0.2743206024169922,-0.1569713056087494
1747558304701967400,3.91396728515625,1.2113561630249023,0.1760711669921875,-0.12297697365283966
1747558304711967500,3.923967529296875,1.458565354347229,0.06340312957763672,-0.16095423698425293
1747558304721967400,3.93396728515625,1.6200485229492188,-0.08756351470947266,-0.40898236632347107
1747558304731967500,3.943967529296875,1.8132470846176147,-0.21455955505371094,-0.6171931624412537
1747558304741967400,3.95396728515625,2.0049386024475098,-0.3008136749267578,-0.727895200252533
1747558304751967500,3.963967529296875,2.0878405570983887,-0.5546283721923828,-0.800371527671814
1747558304761967400,3.97396728515625,1.964002013206482,-0.7820253372192383,-0.8228341341018677
1747558304771967500,3.983967529296875,1.4295979738235474,-0.9039754867553711,-0.8322753310203552
1747558304781967400,3.99396728515625,0.6668983101844788,-1.0113229751586914,-0.855799674987793
1747558304791967500,4.003967529296875,-0.16411679983139038,-0.9675941467285156,-0.9204326272010803
1747558304801967400,4.01396728515625,-0.7507950067520142,-0.87799072265625,-0.9991866946220398
1747558304811967500,4.023967529296875,-1.0816431045532227,-0.7308015823364258,-0.9711111783981323
1747558304821967400,4.03396728515625,-1.0209189653396606,-0.49754905700683594,-0.8097338080406189
1747558304831967500,4.043967529296875,-0.5817469358444214,-0.3652219772338867,-0.666935384273529
1747558304841967400,4.05396728515625,0.1598728895187378,-0.24059772491455078,-0.523101806640625
1747558304851967500,4.063967529296875,0.8889549970626831,-0.14515018463134766,-0.6661097407341003
1747558304861967400,4.07396728515625,1.6106150150299072,-0.08350658416748047,-0.9329454302787781
1747558304871967500,4.083967529296875,2.076622486114502,-0.07935047149658203,-1.0135908126831055
1747558304881967400,4.09396728515625,2.2832865715026855,-0.07749652862548828,-1.0560176372528076
1747558304891967500,4.103967529296875,2.3173131942749023,-0.08985233306884766,-1.0184253454208374
1747558304901967400,4.11396728515625,2.2365012168884277,-0.1285867691040039,-0.8479130268096924
1747558304911967500,4.123967529296875,2.0217201709747314,-0.1887369155883789,-0.6103829145431519
1747558304921967400,4.13396728515625,1.758573055267334,-0.2535552978515625,-0.4080184996128082
1747558304931967500,4.143967529296875,1.441274881362915,-0.4140052795410156,-0.27093905210494995
1747558304941967400,4.15396728515625,1.1798007488250732,-0.6031465530395508,-0.3431064486503601
1747558304951967500,4.163967529296875,0.8378651142120361,-0.7108688354492188,-0.46050912141799927
1747558304971967500,4.183967529296875,0.06112578511238098,-0.8615083694458008,-0.605742335319519
1747558304981967400,4.19396728515625,-0.2945183515548706,-0.9187583923339844,-0.6231813430786133
1747558304991967500,4.203967529296875,-0.49035483598709106,-0.8897504806518555,-0.643363356590271
1747558305001967400,4.21396728515625,-0.48553723096847534,-0.7961359024047852,-0.790801465511322
1747558305011967500,4.223967529296875,-0.26402968168258667,-0.6690807342529297,-0.7738257050514221
1747558305021967400,4.23396728515625,0.0017807483673095703,-0.5421056747436523,-0.7627663016319275
1747558305031967500,4.243967529296875,0.28457537293434143,-0.3097991943359375,-0.695151150226593
1747558305041967400,4.25396728515625,0.4689210057258606,-0.14696025848388672,-0.7213962078094482
1747558305051967500,4.263967529296875,0.43682169914245605,-0.029557228088378906,-0.6549106240272522
1747558305061967400,4.27396728515625,0.06393705308437347,0.1143026351928711,-0.37631461024284363
1747558305071967500,4.283967529296875,-0.3929974436759949,0.17696285247802734,-0.4290127754211426
1747558305081967400,4.29396728515625,-0.49964115023612976,0.1558542251586914,-0.5568187832832336
1747558305091967500,4.303967529296875,-0.49534955620765686,0.2160482406616211,-0.584667444229126
1747558305101967400,4.31396728515625,-0.4027963876724243,0.07976436614990234,-0.572940468788147
1747558305111967500,4.323967529296875,-0.33064505457878113,0.08460330963134766,-0.5122779011726379
1747558305121967400,4.33396728515625,-0.24673163890838623,0.015154838562011719,-0.496740460395813
1747558305131967500,4.343967529296875,-0.14015987515449524,0.02945232391357422,-0.46197134256362915
1747558305141967400,4.35396728515625,-0.1418076455593109,-0.0016660690307617188,-0.6286623477935791
1747558305151967500,4.363967529296875,-0.2347986400127411,-0.011091232299804688,-0.6783900260925293
1747558305161967400,4.37396728515625,-0.5121768116950989,-0.056244850158691406,-0.3719692528247833
1747558305171967500,4.383967529296875,-0.7021911144256592,-0.018485069274902344,-0.21252691745758057
1747558305181967400,4.39396728515625,-0.7201414704322815,0.12343978881835938,-0.28371667861938477
1747558305191967500,4.403967529296875,-0.5027145743370056,0.11787986755371094,-0.3060927987098694
1747558305201967400,4.41396728515625,-0.23029136657714844,0.11623954772949219,-0.21823272109031677
1747558305211967500,4.423967529296875,0.009549319744110107,0.1988506317138672,-0.09397414326667786
1747558305221967400,4.43396728515625,0.23033493757247925,0.2531471252441406,0.045394569635391235
1747558305231967500,4.443967529296875,0.4930322468280792,0.2941122055053711,0.1297808289527893
1747558305241967400,4.45396728515625,0.5889259576797485,0.3390674591064453,0.21083736419677734
1747558305251967500,4.463967529296875,0.4308236241340637,0.3799123764038086,0.20681670308113098
1747558305261967400,4.47396728515625,0.12359827756881714,0.47754478454589844,0.19108256697654724
1747558305271967500,4.483967529296875,-0.21145808696746826,0.6598062515258789,0.09551498293876648
1747558305281967400,4.49396728515625,-0.6050528883934021,0.7201194763183594,0.082390695810318
1747558305291967500,4.503967529296875,-0.9566974639892578,0.7708349227905273,0.5248156189918518
1747558305301967400,4.51396728515625,-1.066028118133545,0.9792270660400391,0.6978697776794434
1747558305311967500,4.523967529296875,-0.761161208152771,1.019474983215332,0.7809551954269409
1747558305321967400,4.53396728515625,-0.04647648334503174,0.9198923110961914,0.8187883496284485
1747558305331967500,4.543967529296875,0.65628981590271,0.7688779830932617,0.945163369178772
1747558305341967400,4.55396728515625,1.4619615077972412,0.49992942810058594,1.0447580814361572
1747558305351967500,4.563967529296875,2.2286810874938965,0.3890542984008789,0.8539350628852844
1747558305361967400,4.57396728515625,3.019951820373535,0.04894065856933594,0.7103712558746338
1747558305371967500,4.583967529296875,3.2361533641815186,0.3417034149169922,0.6638558506965637
1747558305381967400,4.59396728515625,3.2230653762817383,0.4535245895385742,0.302318811416626
1747558305391967500,4.603967529296875,3.4592440128326416,0.2881660461425781,0.21205228567123413
1747558305401967400,4.61396728515625,3.993377685546875,0.08675003051757812,0.27660834789276123
1747558305411967500,4.623967529296875,3.8342862129211426,-0.21738529205322266,0.2304118126630783
1747558305421967400,4.63396728515625,3.1608760356903076,-0.35109615325927734,0.581610381603241
1747558305431967500,4.643967529296875,2.0036842823028564,-0.5150833129882812,0.8199556469917297
1747558305441967400,4.65396728515625,0.8092243671417236,-0.4385061264038086,0.8608008623123169
1747558305451967500,4.663967529296875,-0.25811201333999634,-0.24869632720947266,0.8162897825241089
1747558305461967400,4.67396728515625,-1.0157099962234497,-0.046581268310546875,0.667079508304596
1747558305471967500,4.683967529296875,-1.4429068565368652,0.09778213500976562,0.6154667735099792
1747558305481967400,4.69396728515625,-1.3025789260864258,0.15503692626953125,0.6989739537239075
1747558305491967500,4.703967529296875,-0.720488965511322,0.1654224395751953,0.9073665142059326
1747558305501967400,4.71396728515625,0.32081806659698486,0.1492137908935547,1.071120262145996
1747558305511967500,4.723967529296875,1.331810712814331,0.1107034683227539,1.0727415084838867
1747558305521967400,4.73396728515625,2.2153334617614746,0.060634613037109375,0.9521729946136475
1747558305531967500,4.743967529296875,2.657439708709717,0.0036258697509765625,0.8345309495925903
1747558305541967400,4.75396728515625,2.91489315032959,-0.13905715942382812,0.5904510021209717
1747558305551967500,4.763967529296875,2.983112335205078,-0.23805809020996094,0.39241907000541687
1747558305561967400,4.77396728515625,2.868861198425293,-0.49527931213378906,0.30077511072158813
1747558305571967500,4.783967529296875,2.6462597846984863,-0.7757339477539062,0.15046852827072144
1747558305581967400,4.79396728515625,2.317591905593872,-1.041304588317871,0.0768842101097107
1747558305591967500,4.803967529296875,1.715469241142273,-1.2729673385620117,0.10479423403739929
1747558305601967400,4.81396728515625,1.0154144763946533,-1.446767807006836,0.2999974191188812
1747558305611967500,4.823967529296875,0.010439246892929077,-1.538844108581543,0.4383805990219116
1747558305621967400,4.83396728515625,-0.764354407787323,-1.5634088516235352,0.528775155544281
1747558305631967500,4.843967529296875,-1.4273223876953125,-1.5017929077148438,0.45194971561431885
1747558305641967400,4.85396728515625,-1.615480899810791,-1.3450183868408203,0.41126230359077454
1747558305651967500,4.863967529296875,-1.3343337774276733,-1.2296762466430664,0.39055007696151733
1747558305661967400,4.87396728515625,-0.7636299729347229,-1.0863866806030273,0.31833645701408386
1747558305671967500,4.883967529296875,-0.27339285612106323,-0.8790245056152344,0.340913325548172
1747558305681967400,4.89396728515625,0.10507071018218994,-0.6695461273193359,0.5437129139900208
1747558305691967500,4.903967529296875,0.32820993661880493,-0.48407936096191406,0.6437374353408813
1747558305701967400,4.91396728515625,0.42463383078575134,-0.2673606872558594,0.6993205547332764
1747558305711967500,4.923967529296875,0.33173781633377075,-0.13426685333251953,0.7794245481491089
1747558305721967400,4.93396728515625,0.27576398849487305,-0.053719520568847656,0.8191711902618408
1747558305731967500,4.943967529296875,0.6214873790740967,0.06740665435791016,0.7623357772827148
1747558305741967400,4.95396728515625,0.9968547821044922,0.17647933959960938,0.6271169185638428
1747558305751967500,4.963967529296875,1.3906874656677246,0.25203418731689453,0.5593129396438599
1747558305761967400,4.97396728515625,1.4406700134277344,0.3467979431152344,0.5718424320220947
1747558305771967500,4.983967529296875,1.3541555404663086,0.46320629119873047,0.6511898040771484
1747558305781967400,4.99396728515625,1.2588269710540771,0.4815196990966797,0.6627402901649475
1747558305791967500,5.003967529296875,1.1201064586639404,0.4807777404785156,0.673819899559021
1747558305801967400,5.01396728515625,1.0328084230422974,0.4993457794189453,0.7062164545059204
1747558305811967500,5.023967529296875,0.8391513228416443,0.49182605743408203,0.42606446146965027
1747558305821967400,5.03396728515625,0.6223951578140259,0.5180978775024414,0.36605364084243774
1747558305831967500,5.043967529296875,0.527538001537323,0.5014657974243164,0.309673547744751
1747558305841967400,5.05396728515625,0.5570440888404846,0.43947410583496094,0.12963467836380005
1747558305851967500,5.063967529296875,0.6316323280334473,0.5403652191162109,-0.1637377142906189
1747558305861967400,5.07396728515625,0.24652999639511108,0.8281641006469727,0.32178544998168945
1747558305871967500,5.083967529296875,-0.7307882905006409,0.898320198059082,0.34048956632614136
1747558305881967400,5.09396728515625,-1.5866297483444214,0.8037166595458984,-0.22196954488754272
1747558305891967500,5.103967529296875,-2.0906827449798584,1.113907814025879,-0.2432730793952942
1747558305901967400,5.11396728515625,-2.1203126907348633,1.3109006881713867,-0.21232494711875916
1747558305911967500,5.123967529296875,-1.2470567226409912,1.4995641708374023,-0.710863471031189
1747558305921967400,5.13396728515625,-0.21779462695121765,1.4549245834350586,-0.6512356996536255
1747558305931967500,5.143967529296875,1.0035910606384277,1.2823543548583984,-0.457169771194458
1747558305941967400,5.15396728515625,2.0587873458862305,1.1555185317993164,-0.4333566725254059
1747558305951967500,5.163967529296875,3.1842727661132812,0.8736934661865234,-0.35417845845222473
1747558305961967400,5.17396728515625,4.0146894454956055,0.6428241729736328,-0.3004883825778961
1747558305971967500,5.183967529296875,4.842916965484619,0.3047599792480469,-0.2887547016143799
1747558305981967400,5.19396728515625,5.339726448059082,-0.05690956115722656,-0.27933216094970703
1747558305991967500,5.203967529296875,5.307734489440918,-0.3611154556274414,-0.002708941698074341
1747558306001967400,5.21396728515625,4.3993096351623535,-0.6586284637451172,0.3402545750141144
1747558306011967500,5.223967529296875,2.955721616744995,-0.7265291213989258,0.3062257766723633
1747558306021967400,5.23396728515625,1.3385478258132935,-0.6028232574462891,0.06951192021369934
1747558306031967500,5.243967529296875,0.16321195662021637,-0.5167684555053711,-0.3310188055038452
1747558306041967400,5.25396728515625,-0.9430968761444092,-0.42726707458496094,-0.36079469323158264
1747558306051967500,5.263967529296875,-1.6152043342590332,-0.34877872467041016,-0.23890814185142517
1747558306061967400,5.27396728515625,-1.9697846174240112,-0.41327857971191406,-0.13680559396743774
1747558306071967500,5.283967529296875,-1.9283671379089355,-0.4683656692504883,-0.07691782712936401
1747558306081967400,5.29396728515625,-1.5823276042938232,-0.5406150817871094,-0.012882590293884277
1747558306091967500,5.303967529296875,-0.9365967512130737,-0.5322198867797852,0.11973054707050323
1747558306101967400,5.31396728515625,-0.25299304723739624,-0.5675516128540039,0.15238192677497864
1747558306111967500,5.323967529296875,0.5830208659172058,-0.6656150817871094,0.09319090843200684
1747558306131967500,5.343967529296875,1.8246809244155884,-0.7110099792480469,-0.33903998136520386
1747558306141967400,5.35396728515625,1.879059076309204,-0.7559413909912109,-0.22175738215446472
1747558306151967500,5.363967529296875,1.9115235805511475,-0.776524543762207,-0.5564757585525513
1747558306161967400,5.37396728515625,1.7861220836639404,-0.715703010559082,-0.629225492477417
1747558306171967500,5.383967529296875,1.7194364070892334,-0.7890539169311523,-0.29831719398498535
1747558306181967400,5.39396728515625,1.5543839931488037,-0.8122472763061523,-0.42123252153396606
1747558306191967500,5.403967529296875,1.3635838031768799,-0.9048213958740234,-0.3561614751815796
1747558306201967400,5.41396728515625,0.9356299042701721,-0.8991975784301758,-0.010380208492279053
1747558306211967500,5.423967529296875,0.15102118253707886,-1.0586223602294922,-0.022397160530090332
1747558306221967400,5.43396728515625,-0.7301493883132935,-0.9064731597900391,-0.058089494705200195
1747558306231967500,5.443967529296875,-1.3279057741165161,-0.9865331649780273,-0.31087297201156616
1747558306241967400,5.45396728515625,-1.4345011711120605,-0.9760208129882812,-0.4968632459640503
1747558306251967500,5.463967529296875,-1.0376191139221191,-0.8440723419189453,-0.7927005290985107
1747558306261967400,5.47396728515625,-0.5389196276664734,-0.7510719299316406,-0.9634189009666443
1747558306271967500,5.483967529296875,-0.42228931188583374,-0.7352361679077148,-0.7098535895347595
1747558306281967400,5.49396728515625,-0.47767308354377747,-0.6454954147338867,-0.4461243152618408
1747558306291967500,5.503967529296875,-0.35628655552864075,-0.6374301910400391,-0.4756467938423157
1747558306301967400,5.51396728515625,-0.14507919549942017,-0.5840301513671875,-0.5562129616737366
1747558306311967500,5.523967529296875,0.144889235496521,-0.48046016693115234,-0.4320659637451172
1747558306321967400,5.53396728515625,0.5190873146057129,-0.3051033020019531,-0.407042920589447
1747558306331967500,5.543967529296875,0.6795967221260071,-0.19432353973388672,-0.4108537435531616
1747558306341967400,5.55396728515625,0.8392223119735718,0.014796257019042969,-0.40223726630210876
1747558306351967500,5.563967529296875,0.9673104286193848,0.06369972229003906,-0.3546904921531677
1747558306361967400,5.57396728515625,0.9089020490646362,0.20621490478515625,-0.3303034007549286
1747558306371967500,5.583967529296875,0.795234203338623,0.34417057037353516,-0.25730273127555847
1747558306381967400,5.59396728515625,0.9071189761161804,0.4798583984375,-0.07569703459739685
1747558306391967500,5.603967529296875,1.1848328113555908,0.6012744903564453,0.05184739828109741
1747558306401967400,5.61396728515625,1.6237521171569824,0.6940860748291016,0.09988778829574585
1747558306411967500,5.623967529296875,1.9734954833984375,0.8014535903930664,0.0603080689907074
1747558306421967400,5.63396728515625,1.825457215309143,0.9617710113525391,-0.07603344321250916
1747558306431967500,5.643967529296875,0.9288821816444397,1.180098533630371,-0.16206946969032288
1747558306441967400,5.65396728515625,-0.2290358543395996,1.1905317306518555,-0.06274345517158508
1747558306451967500,5.663967529296875,-1.4470829963684082,1.3881855010986328,0.26179391145706177
1747558306461967400,5.67396728515625,-1.9333815574645996,1.4638757705688477,0.4238409399986267
1747558306471967500,5.683967529296875,-1.515115737915039,1.678196907043457,0.4411775469779968
1747558306481967400,5.69396728515625,-0.0587993860244751,1.7865066528320312,0.1879851520061493
1747558306491967500,5.703967529296875,1.5134774446487427,1.6259765625,0.1399058997631073
1747558306501967400,5.71396728515625,2.942143440246582,1.3142871856689453,0.3231227993965149
1747558306511967500,5.723967529296875,3.6631221771240234,1.0077123641967773,0.3604738116264343
1747558306521967400,5.73396728515625,3.824721574783325,0.7398977279663086,0.3927507996559143
1747558306531967500,5.743967529296875,3.5671191215515137,0.5202980041503906,0.5837892293930054
1747558306541967400,5.75396728515625,3.2689034938812256,0.2866058349609375,0.734508752822876
1747558306551967500,5.763967529296875,2.9792749881744385,0.04833221435546875,0.8005921840667725
1747558306561967400,5.77396728515625,2.6068129539489746,-0.14654827117919922,0.7899515628814697
1747558306571967500,5.783967529296875,1.9042057991027832,-0.2427816390991211,0.7084744572639465
1747558306581967400,5.79396728515625,1.0703411102294922,-0.3050546646118164,0.6844546794891357
1747558306591967500,5.803967529296875,-0.13579264283180237,-0.36420440673828125,0.5109238624572754
1747558306601967400,5.81396728515625,-1.177024245262146,-0.23609161376953125,0.5083438158035278
1747558306611967500,5.823967529296875,-1.7102129459381104,-0.19408702850341797,0.5256471037864685
1747558306621967400,5.83396728515625,-1.6079692840576172,-0.20536231994628906,0.5764262676239014
1747558306631967500,5.843967529296875,-0.9209069609642029,-0.11478710174560547,0.6196920275688171
1747558306641967400,5.85396728515625,0.10960662364959717,-0.13188457489013672,0.5623308420181274
1747558306651967500,5.863967529296875,0.8395516872406006,-0.27178478240966797,0.49968817830085754
1747558306661967400,5.87396728515625,1.4779331684112549,-0.4329805374145508,0.4470955431461334
1747558306671967500,5.883967529296875,1.8837504386901855,-0.5727357864379883,0.38794341683387756
1747558306681967400,5.89396728515625,2.00566029548645,-0.7340421676635742,0.376234233379364
1747558306691967500,5.903967529296875,1.953338861465454,-0.9215927124023438,0.346756249666214
1747558306701967400,5.91396728515625,1.915910005569458,-1.068781852722168,0.2822682559490204
1747558306711967500,5.923967529296875,1.8937337398529053,-1.2301855087280273,0.3541460335254669
1747558306721967400,5.93396728515625,1.8706417083740234,-1.379446029663086,0.5731526613235474
1747558306731967500,5.943967529296875,1.7041981220245361,-1.5237445831298828,0.7868623733520508
1747558306741967400,5.95396728515625,1.3288646936416626,-1.634181022644043,0.802618682384491
1747558306751967500,5.963967529296875,0.6717272996902466,-1.6723413467407227,0.7389636635780334
1747558306761967400,5.97396728515625,0.054664790630340576,-1.6694650650024414,0.5520400404930115
1747558306771967500,5.983967529296875,-0.4718491733074188,-1.6591711044311523,0.33671531081199646
1747558306781967400,5.99396728515625,-0.8526631593704224,-1.5363845825195312,0.2665092647075653
1747558306791967500,6.003967529296875,-1.0888272523880005,-1.4068069458007812,0.3183177709579468
1747558306801967400,6.01396728515625,-1.0484848022460938,-1.2703180313110352,0.4262821674346924
1747558306811967500,6.023967529296875,-0.8355618119239807,-1.1077766418457031,0.5197387933731079
1747558306821967400,6.03396728515625,-0.45612725615501404,-0.8591766357421875,0.6073194146156311
1747558306831967500,6.043967529296875,-0.10942277312278748,-0.6704130172729492,0.5701611042022705
1747558306841967400,6.05396728515625,0.14686377346515656,-0.49588489532470703,0.4276575446128845
1747558306851967500,6.063967529296875,0.1753825694322586,-0.30931854248046875,0.3725561797618866
1747558306861967400,6.07396728515625,0.18687748908996582,-0.10593509674072266,0.432025671005249
1747558306871967500,6.083967529296875,0.3002069294452667,0.04944610595703125,0.5354437232017517
1747558306881967400,6.09396728515625,0.617131233215332,0.3579292297363281,0.5857301354408264
1747558306891967500,6.103967529296875,1.008657693862915,0.5825262069702148,0.5899816155433655
1747558306901967400,6.11396728515625,1.062397837638855,0.7855396270751953,0.7347723841667175
1747558306911967500,6.123967529296875,1.2405296564102173,0.9142847061157227,0.6765075325965881
1747558306921967400,6.13396728515625,1.302379846572876,1.0333471298217773,0.616473913192749
1747558306931967500,6.143967529296875,1.2330609560012817,1.1214675903320312,0.5448895692825317
1747558306941967400,6.15396728515625,1.314430832862854,1.1355810165405273,0.388203501701355
1747558306951967500,6.163967529296875,1.6726882457733154,1.1882152557373047,0.151447594165802
1747558306961967400,6.17396728515625,1.8197871446609497,1.2074975967407227,-0.010306596755981445
1747558306971967500,6.183967529296875,1.4814646244049072,1.250885009765625,0.006577670574188232
1747558306981967400,6.19396728515625,0.5166062712669373,1.4979896545410156,-0.0074468255043029785
1747558306991967500,6.203967529296875,-1.0047607421875,1.759817123413086,-0.18812310695648193
1747558307001967400,6.21396728515625,-2.677973747253418,1.8401060104370117,-0.06688213348388672
1747558307011967500,6.223967529296875,-3.070568323135376,1.5729475021362305,-0.28148913383483887
1747558307021967400,6.23396728515625,-2.0975639820098877,2.094588279724121,-0.38232696056365967
1747558307031967500,6.243967529296875,-0.22979134321212769,2.073528289794922,-0.49120062589645386
1747558307041967400,6.25396728515625,1.9638322591781616,1.8861522674560547,-0.4719228148460388
1747558307051967500,6.263967529296875,3.5588579177856445,1.284475326538086,-0.41017329692840576
1747558307061967400,6.27396728515625,4.203627109527588,1.0879106521606445,-0.06823331117630005
1747558307071967500,6.283967529296875,3.7426249980926514,0.7437353134155273,-0.0764499306678772
1747558307081967400,6.29396728515625,3.466850996017456,0.1342601776123047,0.36838531494140625
1747558307091967500,6.303967529296875,2.9457356929779053,0.07328224182128906,0.2847460210323334
1747558307101967400,6.31396728515625,2.8080122470855713,-0.3993988037109375,0.8330836892127991
1747558307111967500,6.323967529296875,1.9517090320587158,-0.744964599609375,0.13146483898162842
1747558307121967400,6.33396728515625,1.3012874126434326,-1.1810245513916016,0.13459289073944092
1747558307131967500,6.343967529296875,0.3120926022529602,-1.0777359008789062,0.26490357518196106
1747558307141967400,6.35396728515625,-0.5681716203689575,-0.9856891632080078,-0.06546351313591003
1747558307151967500,6.363967529296875,-1.1095095872879028,-1.1374940872192383,-0.5296078324317932
1747558307161967400,6.37396728515625,-1.6043415069580078,-0.9206008911132812,-0.7448579668998718
1747558307171967500,6.383967529296875,-1.3389675617218018,-0.7592487335205078,-0.4847404956817627
1747558307181967400,6.39396728515625,-0.3478509783744812,-0.8621749877929688,-0.4759870171546936
1747558307191967500,6.403967529296875,0.43876317143440247,-0.7575740814208984,-0.29305005073547363
1747558307201967400,6.41396728515625,1.4507787227630615,-0.5648708343505859,0.0176733136177063
1747558307211967500,6.423967529296875,1.5350006818771362,-0.5157985687255859,0.019627362489700317
1747558307221967400,6.43396728515625,0.7315584421157837,-0.3634376525878906,0.4634720981121063
1747558307231967500,6.443967529296875,0.20414453744888306,-0.23974895477294922,0.5650845170021057
1747558307241967400,6.45396728515625,0.5157061219215393,-0.40360260009765625,0.3668760657310486
1747558307251967500,6.463967529296875,1.2885148525238037,-0.7116413116455078,0.15952391922473907
1747558307261967400,6.47396728515625,2.3074185848236084,-0.8235721588134766,-0.0973898321390152
1747558307271967500,6.483967529296875,2.5560364723205566,-0.848912239074707,-0.5302320718765259
1747558307281967400,6.49396728515625,2.330683708190918,-1.1347332000732422,-0.31217676401138306
1747558307291967500,6.503967529296875,1.3717314004898071,-1.2595224380493164,0.13580255210399628
1747558307301967400,6.51396728515625,0.7623144388198853,-1.1206741333007812,0.10068067908287048
1747558307311967500,6.523967529296875,0.03953737020492554,-0.979182243347168,-0.7101246118545532
1747558307321967400,6.53396728515625,-0.944025993347168,-1.2971906661987305,0.07123422622680664
1747558307331967500,6.543967529296875,-1.3871902227401733,-1.0813140869140625,0.18495091795921326
1747558307341967400,6.55396728515625,-1.2580652236938477,-0.9255847930908203,-0.3371054530143738
1747558307351967500,6.563967529296875,-1.335327386856079,-1.1150970458984375,0.2882639765739441
1747558307361967400,6.57396728515625,-0.52300626039505,-0.6944913864135742,-0.1469748318195343
1747558307371967500,6.583967529296875,-0.1019417941570282,-0.6139860153198242,-0.17273645102977753
1747558307381967400,6.59396728515625,0.04649960994720459,-0.4424610137939453,0.027874097228050232
1747558307391967500,6.603967529296875,0.12478813529014587,-0.16547775268554688,0.2028925120830536
1747558307401967400,6.61396728515625,0.26487141847610474,0.032553672790527344,0.3563564121723175
1747558307411967500,6.623967529296875,0.39928075671195984,0.055904388427734375,0.03204086422920227
1747558307421967400,6.63396728515625,0.2851952612400055,-0.0571136474609375,-0.20448212325572968
1747558307431967500,6.643967529296875,0.11345541477203369,0.07418346405029297,-0.3793111741542816
1747558307441967400,6.65396728515625,0.47613632678985596,0.1671924591064453,-0.20692980289459229
1747558307451967500,6.663967529296875,0.9338821768760681,0.2242269515991211,-0.07471767067909241
1747558307461967400,6.67396728515625,1.028977394104004,0.36043643951416016,-0.0957467257976532
1747558307471967500,6.683967529296875,1.1599479913711548,0.4297313690185547,0.15571050345897675
1747558307481967400,6.69396728515625,1.4363423585891724,0.42012882232666016,0.044149816036224365
1747558307491967500,6.703967529296875,1.2969152927398682,0.48490047454833984,-0.03408084809780121
1747558307501967400,6.71396728515625,0.9805833697319031,0.5427150726318359,0.11334288120269775
1747558307511967500,6.723967529296875,0.8296283483505249,0.5383338928222656,0.2949398159980774
1747558307521967400,6.73396728515625,0.7925593852996826,0.49564361572265625,0.4697118401527405
1747558307531967500,6.743967529296875,0.9976552724838257,0.5559043884277344,0.1167544573545456
1747558307541967400,6.75396728515625,0.9857622981071472,0.6210517883300781,0.2706681191921234
1747558307551967500,6.763967529296875,0.36565351486206055,1.0095195770263672,0.4312734007835388
1747558307561967400,6.77396728515625,-0.7747375965118408,0.9050254821777344,0.38891953229904175
1747558307571967500,6.783967529296875,-2.1438331604003906,0.9924001693725586,0.5703656673431396
1747558307581967400,6.79396728515625,-2.5791714191436768,1.0965347290039062,0.6542278528213501
1747558307591967500,6.803967529296875,-1.61495041847229,1.2407445907592773,0.4926066994667053
1747558307601967400,6.81396728515625,-0.030155181884765625,1.4270973205566406,0.42923927307128906
1747558307611967500,6.823967529296875,2.003809690475464,1.4117403030395508,0.39972323179244995
1747558307621967400,6.83396728515625,3.39766788482666,1.396388053894043,0.42642128467559814
1747558307631967500,6.843967529296875,3.998816967010498,1.2928638458251953,0.4112728238105774
1747558307641967400,6.85396728515625,4.090731143951416,1.0056037902832031,0.5866565704345703
1747558307651967500,6.863967529296875,3.8679141998291016,0.6349010467529297,0.5914850234985352
1747558307661967400,6.87396728515625,3.2332324981689453,0.24302291870117188,0.3520987629890442
1747558307671967500,6.883967529296875,2.263657331466675,-0.07905197143554688,0.23660920560359955
1747558307681967400,6.89396728515625,0.8230591416358948,-0.4007835388183594,0.02088788151741028
1747558307691967500,6.903967529296875,-0.12349370121955872,-0.4898099899291992,0.1751847118139267
1747558307701967400,6.91396728515625,-0.9136115312576294,-0.4564380645751953,0.18173691630363464
1747558307711967500,6.923967529296875,-1.2835770845413208,-0.3223733901977539,0.022956520318984985
1747558307721967400,6.93396728515625,-1.0463743209838867,-0.31775379180908203,-0.018674880266189575
1747558307731967500,6.943967529296875,-0.3471852242946625,-0.1197195053100586,0.032223522663116455
1747558307741967400,6.95396728515625,0.4608122408390045,-0.04719257354736328,0.19450610876083374
1747558307751967500,6.963967529296875,1.197624921798706,-0.013508796691894531,0.45544105768203735
1747558307761967400,6.97396728515625,1.4140560626983643,-0.23125076293945312,0.532412052154541
1747558307771967500,6.983967529296875,1.3293712139129639,-0.49216270446777344,0.8040300011634827
1747558307781967400,6.99396728515625,1.1755825281143188,-0.6529932022094727,0.8429603576660156
1747558307791967500,7.003967529296875,1.0529290437698364,-0.8161582946777344,0.6115060448646545
1747558307801967400,7.01396728515625,0.991309404373169,-1.0247936248779297,0.48054420948028564
1747558307821967400,7.03396728515625,0.7160813808441162,-1.1977663040161133,0.33215048909187317
1747558307831967500,7.043967529296875,0.4751540422439575,-1.3822593688964844,0.28737086057662964
1747558307841967400,7.05396728515625,0.4770636558532715,-1.382192611694336,0.2874000668525696
1747558307851967500,7.063967529296875,-0.25072017312049866,-1.5543127059936523,0.0857025682926178
1747558307861967400,7.07396728515625,-0.2446063756942749,-1.5540313720703125,0.0867970883846283
1747558307871967500,7.083967529296875,-0.4676607549190521,-1.4222679138183594,0.25073012709617615
1747558307881967400,7.09396728515625,-0.31137511134147644,-1.3530206680297852,0.29963529109954834
1747558307891967500,7.103967529296875,-0.24862319231033325,-1.2384510040283203,0.5075167417526245
1747558307901967400,7.11396728515625,-0.31021425127983093,-1.0688362121582031,0.5423527359962463
1747558307911967500,7.123967529296875,-0.12759467959403992,-0.8847856521606445,0.3079395592212677
1747558307921967400,7.13396728515625,0.07271274924278259,-0.8059835433959961,0.19137683510780334
1747558307931967500,7.143967529296875,0.25319966673851013,-0.6528759002685547,0.20369768142700195
1747558307941967400,7.15396728515625,0.2837158143520355,-0.4925374984741211,0.08683395385742188
1747558307951967500,7.163967529296875,0.18911416828632355,-0.30580806732177734,0.10877630114555359
1747558307961967400,7.17396728515625,0.1441720426082611,-0.12627220153808594,0.27786916494369507
1747558307971967500,7.183967529296875,0.17571285367012024,0.0890817642211914,0.39725422859191895
1747558307981967400,7.19396728515625,0.17760872840881348,0.30433177947998047,0.5034863948822021
1747558307991967500,7.203967529296875,0.29186347126960754,0.45487499237060547,0.6300473809242249
1747558308001967400,7.21396728515625,0.47586071491241455,0.6125936508178711,0.6699790358543396
1747558308011967500,7.223967529296875,0.5959101915359497,0.6649980545043945,0.7339116334915161
1747558308021967400,7.23396728515625,0.6544058322906494,0.7558050155639648,0.7546212673187256
1747558308031967500,7.243967529296875,0.7432047128677368,0.8611783981323242,0.6205450892448425
1747558308041967400,7.25396728515625,0.7801883220672607,0.8563528060913086,0.28888532519340515
1747558308051967500,7.263967529296875,0.7170405983924866,0.835637092590332,0.03415302932262421
1747558308061967400,7.27396728515625,0.6330576539039612,0.7625532150268555,-0.15215659141540527
1747558308071967500,7.283967529296875,0.14828063547611237,0.8557090759277344,-0.3047565817832947
1747558308081967400,7.29396728515625,-0.9007365703582764,1.1406497955322266,-0.4232964515686035
1747558308091967500,7.303967529296875,-2.536794662475586,1.1980228424072266,-0.5282996296882629
1747558308101967400,7.31396728515625,-3.667182445526123,1.2076597213745117,-0.7852756977081299
1747558308111967500,7.323967529296875,-3.4883570671081543,1.277235984802246,-1.0914967060089111
1747558308121967400,7.33396728515625,-2.038151502609253,1.480733871459961,-1.1293150186538696
1747558308131967500,7.343967529296875,0.4264744818210602,1.4853410720825195,-0.9955980181694031
1747558308141967400,7.35396728515625,2.4351210594177246,1.2457704544067383,-0.9979413747787476
1747558308151967500,7.363967529296875,3.4721713066101074,1.0399465560913086,-0.7855156064033508
1747558308161967400,7.37396728515625,3.689026117324829,0.8462142944335938,-0.41822776198387146
1747558308171967500,7.383967529296875,3.4636428356170654,0.604527473449707,-0.2672916352748871
1747558308181967400,7.39396728515625,2.8523502349853516,0.3435211181640625,-0.3169572949409485
1747558308191967500,7.403967529296875,1.89612877368927,0.11829471588134766,-0.4397200345993042
1747558308201967400,7.41396728515625,0.48066842555999756,-0.10461997985839844,-0.5443722605705261
1747558308211967500,7.423967529296875,-0.7980436682701111,-0.38262176513671875,-0.74856036901474
1747558308221967400,7.43396728515625,-1.9666309356689453,-0.3827219009399414,-0.8757748603820801
1747558308231967500,7.443967529296875,-2.3458938598632812,-0.3108549118041992,-1.0181161165237427
1747558308241967400,7.45396728515625,-1.9428128004074097,-0.22456741333007812,-1.003353238105774
1747558308251967500,7.463967529296875,-0.7363242506980896,-0.0880126953125,-1.021160364151001
1747558308261967400,7.47396728515625,0.405443400144577,-0.011372566223144531,-0.9942115545272827
1747558308271967500,7.483967529296875,1.2331342697143555,-0.06630897521972656,-0.7309139370918274
1747558308281967400,7.49396728515625,1.6949337720870972,-0.19776153564453125,-0.45568859577178955
1747558308291967500,7.503967529296875,1.9076447486877441,-0.3699169158935547,-0.19647417962551117
1747558308301967400,7.51396728515625,1.675547480583191,-0.6282949447631836,-0.07766776531934738
1747558308311967500,7.523967529296875,1.1566253900527954,-0.8772430419921875,0.026712357997894287
1747558308321967400,7.53396728515625,0.6661617755889893,-1.238774299621582,0.017552614212036133
1747558308331967500,7.543967529296875,0.355325311422348,-1.4519233703613281,0.04491758346557617
1747558308341967400,7.55396728515625,-0.11935235559940338,-1.6267547607421875,-0.004586458206176758
1747558308351967500,7.563967529296875,-0.4539102017879486,-1.7034358978271484,-0.16642975807189941
1747558308361967400,7.57396728515625,-0.5345908403396606,-1.7178611755371094,-0.32778555154800415
1747558308371967500,7.583967529296875,-0.648975670337677,-1.636490821838379,-0.31342414021492004
1747558308381967400,7.59396728515625,-0.7143284678459167,-1.4856491088867188,-0.4675333499908447
1747558308391967500,7.603967529296875,-0.9523025155067444,-1.353959083557129,-0.48758888244628906
1747558308401967400,7.61396728515625,-1.1588994264602661,-1.1935205459594727,-0.37917467951774597
1747558308411967500,7.623967529296875,-1.4286624193191528,-1.0234861373901367,-0.3793114423751831
1747558308421967400,7.63396728515625,-1.4988336563110352,-0.8989458084106445,-0.4268333911895752
1747558308431967500,7.643967529296875,-1.226802110671997,-0.7480869293212891,-0.44496434926986694
1747558308441967400,7.65396728515625,-0.8278195261955261,-0.5613298416137695,-0.42735737562179565
1747558308451967500,7.663967529296875,-0.3579433858394623,-0.3793630599975586,-0.37413930892944336
1747558308461967400,7.67396728515625,-0.09764818847179413,-0.2811708450317383,-0.2847399115562439
1747558308471967500,7.683967529296875,-0.13672873377799988,-0.18540668487548828,-0.21362259984016418
1747558308481967400,7.69396728515625,-0.11966566741466522,-0.04894542694091797,-0.24163755774497986
1747558308491967500,7.703967529296875,-0.14659810066223145,0.015659332275390625,-0.2749433219432831
1747558308501967400,7.71396728515625,-0.12406594306230545,0.07067203521728516,-0.44280892610549927
1747558308511967500,7.723967529296875,-0.0795610323548317,0.1783275604248047,-0.5572992563247681
1747558308521967400,7.73396728515625,0.1344090700149536,0.1638946533203125,-0.6616984009742737
1747558308531967500,7.743967529296875,0.1708814650774002,0.27873992919921875,-0.6602101922035217
1747558308541967400,7.75396728515625,0.21408583223819733,0.2834510803222656,-0.6394237279891968
1747558308551967500,7.763967529296875,0.209141343832016,0.40071964263916016,-0.43008217215538025
1747558308561967400,7.77396728515625,0.22825375199317932,0.45334339141845703,-0.37288084626197815
1747558308571967500,7.783967529296875,0.27416911721229553,0.5778255462646484,-0.3337582051753998
1747558308581967400,7.79396728515625,-0.16440963745117188,0.7478408813476562,-0.2714630961418152
1747558308591967500,7.803967529296875,-1.2601611614227295,0.9394311904907227,-0.25994712114334106
1747558308601967400,7.81396728515625,-2.494943857192993,1.0089569091796875,-0.1159922331571579
1747558308611967500,7.823967529296875,-3.50355863571167,1.2365541458129883,0.05867753177881241
1747558308621967400,7.83396728515625,-3.4948103427886963,1.236598014831543,0.06340251117944717
1747558308631967500,7.843967529296875,-1.4467817544937134,1.8732624053955078,-0.4640463888645172
1747558308641967400,7.85396728515625,0.7273749709129333,1.9997482299804688,-0.2926160395145416
1747558308651967500,7.863967529296875,2.0842230319976807,2.01162052154541,-0.05800970643758774
1747558308661967400,7.87396728515625,2.7508385181427,1.8035774230957031,0.2802355885505676
1747558308671967500,7.883967529296875,2.875831365585327,1.535867691040039,0.5445277690887451
1747558308681967400,7.89396728515625,3.1869139671325684,1.1460857391357422,0.7915533781051636
1747558308691967500,7.903967529296875,3.4897983074188232,0.7107477188110352,0.9871647953987122
1747558308701967400,7.91396728515625,3.4216854572296143,0.25372982025146484,1.1149945259094238
1747558308711967500,7.923967529296875,2.5438132286071777,-0.2683286666870117,1.1583185195922852
1747558308721967400,7.93396728515625,1.2276668548583984,-0.6398344039916992,0.7846493721008301
1747558308731967500,7.943967529296875,-0.22727088630199432,-0.8773927688598633,0.21492928266525269
1747558308741967400,7.95396728515625,-1.2731378078460693,-0.8729820251464844,-0.23376812040805817
1747558308751967500,7.963967529296875,-1.827469825744629,-0.8084554672241211,-0.4896630346775055
1747558308761967400,7.97396728515625,-1.8846558332443237,-0.6167774200439453,-0.46679067611694336
1747558308771967500,7.983967529296875,-1.6258928775787354,-0.44176387786865234,-0.24735036492347717
1747558308781967400,7.99396728515625,-1.139976978302002,-0.31946372985839844,0.0799625962972641
1747558308791967500,8.003967529296874,-0.43944182991981506,-0.3217802047729492,0.5687167048454285
1747558308801967400,8.01396728515625,0.33167555928230286,-0.3098106384277344,0.8849772810935974
1747558308811967500,8.023967529296876,0.9793357253074646,-0.3457069396972656,1.0902353525161743
1747558308821967400,8.03396728515625,1.5487205982208252,-0.39112281799316406,1.215584635734558
1747558308841967400,8.05396728515625,1.6975747346878052,-0.5512638092041016,0.6677233576774597
1747558308851967500,8.063967529296875,1.5669329166412354,-0.7570419311523438,0.26973143219947815
1747558308861967400,8.07396728515625,1.2740343809127808,-0.9867992401123047,-0.09863485395908356
1747558308871967200,8.08396728515625,0.8821449279785156,-1.190298080444336,-0.32963472604751587
1747558308881967400,8.09396728515625,0.3244646191596985,-1.357919692993164,-0.45960313081741333
1747558308911967200,8.12396728515625,-1.2541964054107666,-1.6358833312988281,-0.19572249054908752
1747558308921967400,8.13396728515625,-1.6308070421218872,-1.6311559677124023,-0.069816455245018
1747558308931967500,8.143967529296875,-1.7414557933807373,-1.5905170440673828,0.05492343008518219
1747558308941967400,8.15396728515625,-1.557113528251648,-1.4804010391235352,0.09640023112297058
1747558308951967200,8.16396728515625,-1.228337049484253,-1.2673187255859375,0.005944594740867615
1747558308961967400,8.17396728515625,-0.7871867418289185,-1.1116466522216797,-0.022122979164123535
1747558308971967500,8.183967529296876,-0.6591256260871887,-0.9248180389404297,-0.12051495909690857
1747558308981967400,8.19396728515625,-0.6500438451766968,-0.6972770690917969,0.01817132532596588
1747558308991967200,8.20396728515625,-0.714169442653656,-0.3883838653564453,0.18811844289302826
1747558309001967400,8.21396728515625,-0.6297855377197266,-0.2232036590576172,0.17685090005397797
1747558309011967500,8.223967529296875,-0.4930337071418762,0.037695884704589844,0.26898500323295593
1747558309021967400,8.23396728515625,-0.3410883843898773,0.3177299499511719,0.3752148449420929
1747558309031967200,8.24396728515625,-0.2638026177883148,0.5474519729614258,0.4154050946235657
1747558309041967400,8.25396728515625,-0.02201864682137966,0.7556219100952148,0.38318681716918945
1747558309051967500,8.263967529296876,0.15384763479232788,0.9087381362915039,0.35847383737564087
1747558309061967400,8.27396728515625,0.3200005888938904,1.0953569412231445,0.3677075207233429
1747558309071967200,8.28396728515625,0.6990057826042175,1.2006139755249023,0.43734657764434814
1747558309081967400,8.29396728515625,0.9341264963150024,1.2651643753051758,0.3238186836242676
1747558309091967500,8.303967529296875,1.1103750467300415,1.205246925354004,0.2568415403366089
1747558309101967400,8.31396728515625,0.934234619140625,1.1262226104736328,0.11684183776378632
1747558309111967200,8.32396728515625,0.3520098924636841,1.0281572341918945,-0.054902397096157074
1747558309121967400,8.33396728515625,-0.6271598935127258,1.2390804290771484,-0.13219285011291504
1747558309131967500,8.343967529296876,-2.154114246368408,1.3281164169311523,-0.1857181191444397
1747558309141967400,8.35396728515625,-3.92354679107666,1.4101438522338867,-0.2905634939670563
1747558309151967200,8.36396728515625,-4.630363464355469,1.6214723587036133,-0.25143587589263916
1747558309161967400,8.37396728515625,-3.62001371383667,1.8802490234375,-0.46793606877326965
1747558309171967500,8.383967529296875,-0.9490764737129211,1.977874755859375,-0.6135822534561157
1747558309181967400,8.39396728515625,1.9265903234481812,1.8308191299438477,-0.7385609149932861
1747558309191967200,8.40396728515625,3.552340269088745,1.5403261184692383,-0.7748335003852844
1747558309201967400,8.41396728515625,4.5082502365112305,1.1880102157592773,-0.4188748300075531
1747558309211967500,8.423967529296876,3.93310809135437,0.8024663925170898,-0.03916647285223007
1747558309221967400,8.43396728515625,2.6628737449645996,0.5127048492431641,0.10931757837533951
1747558309231967200,8.44396728515625,1.2720067501068115,0.2708721160888672,0.05909077823162079
1747558309241967400,8.45396728515625,0.2678115665912628,0.012401580810546875,-0.05194207653403282
1747558309251967500,8.463967529296875,-0.6339128613471985,-0.2746438980102539,-0.20131079852581024
1747558309261967400,8.47396728515625,-1.3217195272445679,-0.3723726272583008,-0.3935471773147583
1747558309271967200,8.48396728515625,-1.550443410873413,-0.3502979278564453,-0.6672223806381226
1747558309281967400,8.49396728515625,-1.141801357269287,-0.3234825134277344,-0.9178788661956787
1747558309291967500,8.503967529296874,-0.2854994833469391,-0.15094661712646484,-1.096328616142273
1747558309301967400,8.51396728515625,0.6887739896774292,-0.043213844299316406,-1.0217021703720093
1747558309311967500,8.523967529296876,1.2490122318267822,0.0022764205932617188,-0.9892390370368958
1747558309321967400,8.53396728515625,1.6111931800842285,-0.06954479217529297,-0.8277113437652588
1747558309331967500,8.543967529296875,1.715532660484314,-0.12932109832763672,-0.7085413932800293
1747558309341967400,8.55396728515625,1.5157570838928223,-0.3422536849975586,-0.5367398262023926
1747558309351967500,8.563967529296875,1.3690184354782104,-0.598444938659668,-0.3931175768375397
1747558309361966600,8.573966552734374,0.9108437895774841,-1.0820493698120117,-0.30821049213409424
1747558309381965600,8.593965576171875,0.625374436378479,-1.2517108917236328,-0.31825757026672363
1747558309391965700,8.603965576171875,0.47618457674980164,-1.4046545028686523,-0.33266720175743103
1747558309401965600,8.613965576171875,0.34776395559310913,-1.5623188018798828,-0.46778324246406555
1747558309411965700,8.623965576171875,0.09876637160778046,-1.6432790756225586,-0.48213818669319153
1747558309431965700,8.643965576171874,-0.6992881298065186,-1.7641181945800781,-0.3343713581562042
1747558309441965600,8.653965576171874,-1.139635682106018,-1.7825546264648438,-0.4045455753803253
1747558309451965700,8.663965576171876,-1.3412421941757202,-1.707627296447754,-0.38461834192276
1747558309461965600,8.673965576171875,-1.4115426540374756,-1.6065216064453125,-0.25042232871055603
1747558309471965700,8.683965576171875,-1.4034168720245361,-1.5056753158569336,-0.2956541180610657
1747558309481965600,8.693965576171875,-1.258516788482666,-1.2756195068359375,-0.34017595648765564
1747558309491965700,8.703965576171875,-1.1287416219711304,-1.124776840209961,-0.4029238224029541
1747558309501965600,8.713965576171875,-0.9378074407577515,-0.8208351135253906,-0.4470686614513397
1747558309511965700,8.723965576171874,-0.7950558662414551,-0.6318492889404297,-0.4349173307418823
1747558309521965600,8.733965576171874,-0.6374953985214233,-0.3998374938964844,-0.40038055181503296
1747558309531965700,8.743965576171876,-0.5002902150154114,-0.2085132598876953,-0.41901305317878723
1747558309541965600,8.753965576171876,-0.4464613199234009,-0.01957225799560547,-0.3840504586696625
1747558309551965700,8.763965576171875,-0.21911415457725525,0.09278106689453125,-0.34269994497299194
1747558309561965600,8.773965576171875,-0.08430501818656921,0.23385143280029297,-0.38555705547332764
1747558309571965700,8.783965576171875,-0.028422385454177856,0.2911510467529297,-0.46813392639160156
1747558309581965600,8.793965576171875,0.06101590394973755,0.41553688049316406,-0.5679436922073364
1747558309591965700,8.803965576171874,0.1243862509727478,0.4753084182739258,-0.5156883001327515
1747558309601965600,8.813965576171874,0.08353139460086823,0.5998315811157227,-0.4584314823150635
1747558309611965700,8.823965576171876,-0.04196545481681824,0.6861591339111328,-0.36259353160858154
1747558309621965600,8.833965576171876,-0.030264228582382202,0.6887750625610352,-0.33881431818008423
1747558309631965700,8.843965576171875,0.17466069757938385,0.7537050247192383,-0.404937207698822
1747558309641965600,8.853965576171875,0.4151218831539154,0.8043174743652344,-0.33068859577178955
1747558309651965700,8.863965576171875,0.25276362895965576,0.9435920715332031,-0.2663046717643738
1747558309661966600,8.873966552734375,-0.7435668110847473,1.1237478256225586,-0.3150199055671692
1747558309671967200,8.88396728515625,-2.1675384044647217,1.0551652908325195,-0.1389358937740326
1747558309681967400,8.89396728515625,-3.668029308319092,1.2309541702270508,0.1018669605255127
1747558309691967200,8.90396728515625,-4.0808939933776855,1.337076187133789,0.11816783249378204
1747558309701967400,8.91396728515625,-2.973778009414673,1.5452566146850586,-0.0847621038556099
1747558309711967200,8.92396728515625,-0.31460896134376526,1.7467737197875977,-0.28961366415023804
1747558309721967400,8.93396728515625,2.108680248260498,1.6628351211547852,-0.3675204813480377
1747558309731967200,8.94396728515625,4.38936185836792,1.437983512878418,-0.15545623004436493
1747558309741967400,8.95396728515625,5.626908302307129,1.1803693771362305,0.07370587438344955
1747558309751967200,8.96396728515625,5.595174312591553,0.6552953720092773,0.2682645916938782
1747558309761967400,8.97396728515625,4.226034641265869,0.3438243865966797,0.17755027115345
1747558309771967200,8.98396728515625,1.9109692573547363,-0.12044048309326172,0.05191519111394882
1747558309781967400,8.99396728515625,-0.03335048258304596,-0.5172033309936523,-0.08491729199886322
1747558309791967200,9.00396728515625,-1.746791124343872,-0.7578325271606445,-0.18349604308605194
1747558309801967400,9.01396728515625,-2.5926170349121094,-0.8067808151245117,-0.2665051817893982
1747558309811967200,9.02396728515625,-2.5424447059631348,-0.714777946472168,-0.3711000978946686
1747558309821967400,9.03396728515625,-1.5750691890716553,-0.5084848403930664,-0.4468269646167755
1747558309831967200,9.04396728515625,-0.3361942172050476,-0.3220529556274414,-0.4679366946220398
1747558309841967400,9.05396728515625,0.6794438362121582,-0.11693382263183594,-0.19560909271240234
1747558309851967200,9.06396728515625,0.9962503910064697,-0.034030914306640625,0.021063538268208504
1747558309861967400,9.07396728515625,1.1151487827301025,-0.03962135314941406,0.10926467925310135
1747558309871967200,9.08396728515625,1.1845736503601074,-0.10495948791503906,0.15769875049591064
1747558309881967400,9.09396728515625,1.4286497831344604,-0.19658184051513672,0.17705167829990387
1747558309891967200,9.10396728515625,1.624098777770996,-0.2569913864135742,0.08318214118480682
1747558309901967400,9.11396728515625,1.6416127681732178,-0.3627758026123047,-0.017636194825172424
1747558309911967200,9.12396728515625,1.3886457681655884,-0.48516082763671875,-0.06747633218765259
1747558309921967400,9.13396728515625,1.1962790489196777,-0.6649074554443359,-0.05891484022140503
1747558309931967200,9.14396728515625,0.9579343199729919,-0.8900547027587891,-0.19642770290374756
1747558309941967400,9.15396728515625,0.7405383586883545,-1.1319026947021484,-0.25455138087272644
1747558309951967200,9.16396728515625,0.3500216603279114,-1.232461929321289,-0.2479907125234604
1747558309961967400,9.17396728515625,-0.19892361760139465,-1.4478788375854492,-0.2637786865234375
1747558309971967200,9.18396728515625,-0.8107789754867554,-1.526747703552246,-0.28354161977767944
1747558309981967400,9.19396728515625,-1.4612250328063965,-1.6797590255737305,-0.30466827750205994
1747558309991967200,9.20396728515625,-1.8188211917877197,-1.6459503173828125,-0.38935181498527527
1747558310001967400,9.21396728515625,-1.808784008026123,-1.5379552841186523,-0.3597884178161621
1747558310011967200,9.22396728515625,-1.5773171186447144,-1.4013099670410156,-0.30855536460876465
1747558310021967400,9.23396728515625,-1.0766481161117554,-1.2216243743896484,-0.2887327969074249
1747558310031967200,9.24396728515625,-0.6542153358459473,-0.9653749465942383,-0.2722510099411011
1747558310041967400,9.25396728515625,-0.43598586320877075,-0.7402524948120117,-0.29706427454948425
1747558310051967200,9.26396728515625,-0.46710342168807983,-0.47440624237060547,-0.19642099738121033
1747558310061967400,9.27396728515625,-0.6003895998001099,-0.29949378967285156,-0.18163812160491943
1747558310071967200,9.28396728515625,-0.7655851244926453,-0.15087032318115234,-0.03774375468492508
1747558310081967400,9.29396728515625,-0.760339617729187,0.03363990783691406,0.025523148477077484
1747558310091967200,9.30396728515625,-0.5294508934020996,0.2971229553222656,0.10373832285404205
1747558310101967400,9.31396728515625,-0.1659393310546875,0.5916862487792969,0.1918397843837738
1747558310111967200,9.32396728515625,0.1973121017217636,0.8024368286132812,0.2540978193283081
1747558310121967400,9.33396728515625,0.29699060320854187,1.1305084228515625,0.33148443698883057
1747558310141967400,9.35396728515625,0.1617579609155655,1.4398345947265625,0.4975520372390747
1747558310151967200,9.36396728515625,0.22031155228614807,1.528914451599121,0.3737339377403259
1747558310161967400,9.37396728515625,0.29604631662368774,1.4146480560302734,0.2517716884613037
1747558310171967200,9.38396728515625,0.15922872722148895,1.9086532592773438,-0.2778051495552063
1747558310181967400,9.39396728515625,-0.9485889673233032,1.7756195068359375,-0.2853694260120392
1747558310191967200,9.40396728515625,-2.527705669403076,1.9110288619995117,-0.6406939029693604
1747558310201967400,9.41396728515625,-4.0585174560546875,1.8432769775390625,-1.0601043701171875
1747558310211967200,9.42396728515625,-4.346503734588623,1.940032958984375,-1.2418442964553833
1747558310221967400,9.43396728515625,-2.8033266067504883,2.2580366134643555,-1.168469786643982
1747558310231967200,9.44396728515625,0.016087502241134644,2.256071090698242,-1.1101257801055908
1747558310241967400,9.45396728515625,2.2980101108551025,2.088273048400879,-0.9862518906593323
1747558310251967200,9.46396728515625,4.228665351867676,1.8778076171875,-0.5110208988189697
1747558310261967400,9.47396728515625,5.110201835632324,1.6178398132324219,-0.14394143223762512
1747558310271967200,9.48396728515625,5.098082542419434,1.1623048782348633,0.18109512329101562
1747558310281967400,9.49396728515625,4.3994364738464355,0.6498270034790039,0.16092851758003235
1747558310291967200,9.50396728515625,3.15071177482605,0.1450958251953125,-0.3098132610321045
1747558310301968000,9.5139677734375,1.5979413986206055,-0.4142112731933594,-0.6663704514503479
1747558310311967700,9.5239677734375,-0.07016336917877197,-0.855504035949707,-0.695967435836792
1747558310321967900,9.5339677734375,-1.8042984008789062,-1.1403322219848633,-0.7809496521949768
1747558310331967700,9.5439677734375,-2.877624034881592,-1.1276273727416992,-0.797622799873352
1747558310341968000,9.5539677734375,-3.3084824085235596,-1.112417221069336,-0.6076765656471252
1747558310351967700,9.5639677734375,-2.736325740814209,-0.9876575469970703,-0.3974333703517914
1747558310361967900,9.5739677734375,-1.2678885459899902,-0.898223876953125,-0.4198378324508667
1747558310371967700,9.5839677734375,-0.09194177389144897,-0.8145608901977539,-0.6037947535514832
1747558310381968000,9.5939677734375,0.6393871903419495,-0.8461952209472656,-0.8296940326690674
1747558310391967700,9.6039677734375,0.873185396194458,-0.9448947906494141,-0.9057271480560303
1747558310401967900,9.6139677734375,0.8614950180053711,-1.0649957656860352,-0.9184092879295349
1747558310411967700,9.6239677734375,0.580003559589386,-1.2280693054199219,-0.7802289128303528
1747558310421968000,9.6339677734375,0.4170891344547272,-1.316868782043457,-0.5934352874755859
1747558310431967700,9.6439677734375,0.2582712769508362,-1.4273605346679688,-0.29567426443099976
1747558310441967900,9.6539677734375,0.3906082212924957,-1.516453742980957,-0.28774258494377136
1747558310451967700,9.6639677734375,0.7942982912063599,-1.567373275756836,-0.31478697061538696
1747558310461968000,9.6739677734375,1.1510063409805298,-1.6063833236694336,-0.25970250368118286
1747558310471967700,9.6839677734375,1.2446730136871338,-1.5302982330322266,-0.2513926327228546
1747558310481967900,9.6939677734375,0.8611012697219849,-1.5401086807250977,-0.4061377942562103
1747558310491967700,9.7039677734375,0.2755269706249237,-1.5088071823120117,-0.5199787020683289
1747558310501968000,9.7139677734375,-0.37941989302635193,-1.4794387817382812,-0.6393558979034424
1747558310511967700,9.7239677734375,-0.8757485151290894,-1.3997364044189453,-0.6947463750839233
1747558310521967900,9.7339677734375,-1.1718661785125732,-1.2842588424682617,-0.6510571837425232
1747558310531967700,9.7439677734375,-1.162755012512207,-1.1139583587646484,-0.5185726284980774
1747558310541968000,9.7539677734375,-1.0271100997924805,-0.9056997299194336,-0.3675658106803894
1747558310551967700,9.7639677734375,-1.0260677337646484,-0.5946903228759766,0.024324879050254822
1747558310561967900,9.7739677734375,-0.7574959993362427,-0.4489250183105469,0.09477555751800537
1747558310571967700,9.7839677734375,-0.41605448722839355,-0.26511096954345703,0.07861849665641785
1747558310581968000,9.7939677734375,-0.22598960995674133,-0.28478431701660156,0.04931552708148956
1747558310591967700,9.8039677734375,-0.3819929361343384,-0.1941671371459961,-0.04064267873764038
1747558310601967400,9.81396728515625,-0.40905073285102844,-0.2230825424194336,-0.2526531517505646
1747558310611967500,9.823967529296874,-0.446482390165329,-0.09874153137207031,-0.34272241592407227
1747558310621967400,9.83396728515625,-0.39317837357521057,0.11188125610351562,-0.28344956040382385
1747558310631967500,9.843967529296876,-0.15225568413734436,0.29380130767822266,-0.3240799605846405
1747558310641967400,9.85396728515625,-0.10689562559127808,0.3224620819091797,-0.14494037628173828
1747558310651967500,9.863967529296875,0.01580721139907837,0.5045080184936523,-0.026174619793891907
1747558310661967400,9.87396728515625,0.26175591349601746,0.4854698181152344,0.03789690136909485
1747558310671967500,9.883967529296875,0.5248962640762329,0.4784231185913086,0.09722703695297241
1747558310681967400,9.89396728515625,0.6512181758880615,0.5145463943481445,0.13539573550224304
1747558310691967500,9.903967529296875,0.5639300346374512,0.5316600799560547,0.16522184014320374
1747558310701967400,9.91396728515625,-0.08216741681098938,0.8194856643676758,0.08276098966598511
1747558310711967500,9.923967529296876,-1.3518059253692627,0.8514041900634766,0.06426116824150085
1747558310721967400,9.93396728515625,-2.5538012981414795,0.8930196762084961,0.10002514719963074
1747558310731967500,9.943967529296875,-3.3849563598632812,0.9082040786743164,0.3079421818256378
1747558310741966600,9.953966552734375,-3.3053503036499023,1.0974798202514648,0.3383437991142273
1747558310751966700,9.963966796875,-1.7555147409439087,1.319087028503418,0.19125263392925262
1747558310761966600,9.973966552734375,0.34232407808303833,1.4484672546386719,0.2004375159740448
1747558310771966700,9.983966796875,2.2626793384552,1.199021339416504,0.1225084662437439
1747558310781966600,9.993966552734374,3.6182711124420166,1.0026874542236328,0.22969374060630798
1747558310791966700,10.003966796875,4.653126239776611,0.7640514373779297,0.3065367043018341
1747558310801966600,10.013966552734376,4.560458183288574,0.44950389862060547,0.6547033786773682
1747558310811966700,10.023966796875,3.6300201416015625,0.2145404815673828,0.8244628310203552
1747558310821966600,10.033966552734375,1.8719241619110107,0.013460159301757812,0.8834160566329956
1747558310831966700,10.043966796875,0.20943127572536469,-0.17531490325927734,0.932798445224762
1747558310841966600,10.053966552734375,-1.2168159484863281,-0.2967348098754883,0.5952338576316833
1747558310851966200,10.06396630859375,-2.0936520099639893,-0.29114437103271484,0.34395137429237366
1747558310861959200,10.073959228515625,-2.5325989723205566,-0.20443344116210938,0.21801583468914032
1747558310871959300,10.083959228515624,-2.1404025554656982,-0.10619354248046875,-0.013678692281246185
1747558310881959200,10.093959228515626,-1.308210849761963,0.013009071350097656,-0.3497086465358734
1747558310891959300,10.103959228515626,-0.1788967251777649,0.12227821350097656,-0.40509092807769775
1747558310901959200,10.113959228515625,0.628529965877533,0.2791109085083008,-0.1336839497089386
1747558310911959300,10.123959228515625,1.3839465379714966,0.2516775131225586,0.22744213044643402
1747558310921959200,10.133959228515625,1.6616507768630981,0.2531604766845703,0.4346405565738678
1747558310931959300,10.143959228515625,1.7437424659729004,0.190338134765625,0.6667907238006592
1747558310941959200,10.153959228515625,1.6652923822402954,-0.00635528564453125,0.7116849422454834
1747558310951959300,10.163959228515624,1.5343620777130127,-0.1694049835205078,0.5509390830993652
1747558310971959300,10.183959228515626,1.5247864723205566,-0.6771984100341797,0.001314297434873879
1747558310981959200,10.193959228515626,1.3190929889678955,-1.0531225204467773,-0.05302490293979645
1747558310991959300,10.203959228515625,1.035879135131836,-1.3356380462646484,-0.20247019827365875
1747558311001959200,10.213959228515625,0.5343988537788391,-1.6109428405761719,-0.4006798267364502
1747558311011959300,10.223959228515625,-0.1288987696170807,-1.8167824745178223,-0.4923848509788513
1747558311021959200,10.233959228515625,-0.8216112852096558,-1.8908233642578125,-0.5638637542724609
1747558311031959300,10.243959228515624,-1.312130331993103,-1.861785888671875,-0.5578437447547913
1747558311041960000,10.2539599609375,-1.7840441465377808,-1.7608270645141602,-0.4321881830692291
1747558311051960000,10.2639599609375,-1.912390112876892,-1.5879878997802734,-0.15872575342655182
1747558311061960000,10.2739599609375,-1.9229120016098022,-1.4415254592895508,0.04432633891701698
1747558311071960000,10.2839599609375,-1.6477564573287964,-1.2424993515014648,0.12147007882595062
1747558311081960000,10.2939599609375,-1.2051244974136353,-1.0124092102050781,0.19027766585350037
1747558311091960000,10.3039599609375,-0.8725030422210693,-0.765594482421875,0.1665755808353424
1747558311101960000,10.3139599609375,-0.9736703038215637,-0.6168680191040039,0.049708910286426544
1747558311111960000,10.3239599609375,-1.2855205535888672,-0.3483114242553711,0.06937310844659805
1747558311121960000,10.3339599609375,-1.4905086755752563,-0.12517929077148438,0.12935703992843628
1747558311131960000,10.3439599609375,-1.469085931777954,0.08117866516113281,0.1456964612007141
1747558311141960000,10.3539599609375,-1.0704823732376099,0.38318824768066406,0.1639750599861145
1747558311151960300,10.363960205078126,-0.5141115188598633,0.5462007522583008,0.08080197125673294
1747558311161960400,10.37396044921875,0.034753620624542236,0.7450246810913086,-0.05252017080783844
1747558311171960300,10.383960205078125,0.39284783601760864,0.8959369659423828,-0.12179477512836456
1747558311181960400,10.39396044921875,0.671146035194397,1.0516185760498047,-0.11949789524078369
1747558311191960300,10.403960205078125,0.6081503629684448,1.133061408996582,0.014412850141525269
1747558311201960400,10.41396044921875,0.48888272047042847,1.274393081665039,0.04055851697921753
1747558311211960300,10.423960205078124,0.5389890670776367,1.2386455535888672,-0.052343353629112244
1747558311221960400,10.43396044921875,0.5422966480255127,1.2986984252929688,-0.23413288593292236
1747558311231960300,10.443960205078126,0.0835048109292984,1.521627426147461,-0.28190702199935913
1747558311241960400,10.45396044921875,-1.135624647140503,1.5890798568725586,-0.3153568506240845
1747558311251960300,10.463960205078125,-2.7641029357910156,1.692612648010254,-0.5114145874977112
1747558311261960400,10.47396044921875,-3.5177972316741943,1.6023101806640625,-0.958695650100708
1747558311271960300,10.483960205078125,-3.063577651977539,1.6265888214111328,-1.671514868736267
1747558311281960400,10.49396044921875,-1.50835120677948,1.6231422424316406,-1.9338843822479248
1747558311291960300,10.503960205078124,0.5883166193962097,1.3147926330566406,-1.5669851303100586
1747558311301960400,10.51396044921875,2.473820209503174,0.9512777328491211,-1.2442492246627808
1747558311311960300,10.523960205078126,3.5319840908050537,0.6672859191894531,-0.7746995687484741
1747558311321960400,10.53396044921875,4.175063133239746,0.21395587921142578,-0.28120091557502747
1747558311331960300,10.543960205078125,4.160191059112549,-0.02103710174560547,-0.011609770357608795
1747558311341960400,10.55396044921875,3.544321298599243,-0.2581663131713867,-0.005218900740146637
1747558311351960300,10.563960205078125,2.4010636806488037,-0.43297386169433594,-0.12702946364879608
1747558311361960400,10.57396044921875,0.7231742739677429,-0.7250204086303711,-0.23253539204597473
1747558311371960300,10.583960205078125,-0.8345780372619629,-0.8277206420898438,-0.47417759895324707
1747558311381960400,10.59396044921875,-1.9749964475631714,-0.7481985092163086,-0.627067506313324
1747558311391960300,10.603960205078126,-2.680940866470337,-0.5056962966918945,-0.5307426452636719
1747558311401960400,10.61396044921875,-2.7288496494293213,-0.4405021667480469,-0.560013473033905
1747558311411960300,10.623960205078125,-2.120858907699585,-0.3349475860595703,-0.6593249440193176
1747558311421960400,10.63396044921875,-1.1185390949249268,-0.20346546173095703,-0.6656900644302368
1747558311431960300,10.643960205078125,-0.1400543600320816,-0.14167118072509766,-0.6484551429748535
1747558311441960400,10.65396044921875,0.49533993005752563,-0.1614513397216797,-0.594974935054779
1747558311451960300,10.663960205078125,1.0154685974121094,-0.2768440246582031,-0.5858087539672852
1747558311461960400,10.67396044921875,1.3799527883529663,-0.3657503128051758,-0.5053077936172485
1747558311471960300,10.683960205078124,1.5385128259658813,-0.47119712829589844,-0.3485632538795471
1747558311481960400,10.69396044921875,1.7011480331420898,-0.5956535339355469,-0.11667700111865997
1747558311491960300,10.703960205078126,1.7786781787872314,-0.8324794769287109,0.1754956841468811
1747558311501960400,10.71396044921875,1.7519334554672241,-0.9902315139770508,0.2720326781272888
1747558311511960300,10.723960205078125,1.5214899778366089,-1.1527652740478516,0.3609875440597534
1747558311521960400,10.73396044921875,1.055701494216919,-1.4015789031982422,0.41751667857170105
1747558311531960300,10.743960205078125,0.5320066809654236,-1.5044422149658203,0.40866729617118835
1747558311541960400,10.75396044921875,-0.09082008898258209,-1.5116701126098633,0.35867753624916077
1747558311551960300,10.763960205078124,-0.5924427509307861,-1.5094175338745117,0.2101946622133255
1747558311561960400,10.77396044921875,-0.8829565644264221,-1.4305591583251953,0.06653115898370743
1747558311571960300,10.783960205078126,-1.0962567329406738,-1.3588848114013672,-0.14502279460430145
1747558311581960400,10.79396044921875,-1.2407547235488892,-1.2584505081176758,-0.18936610221862793
1747558311591960300,10.803960205078125,-1.5113270282745361,-1.1723394393920898,-0.21325872838497162
1747558311601960400,10.81396044921875,-1.5738754272460938,-1.0814094543457031,-0.18271248042583466
1747558311611960300,10.823960205078125,-1.446476936340332,-0.9784507751464844,-0.25796735286712646
1747558311621960400,10.83396044921875,-1.2723037004470825,-0.7365760803222656,-0.37349197268486023
1747558311631960300,10.843960205078124,-1.22310471534729,-0.5305938720703125,-0.37851738929748535
1747558311641960400,10.85396044921875,-1.0749156475067139,-0.39159297943115234,-0.32422083616256714
1747558311651960300,10.863960205078126,-0.7402583956718445,-0.1400127410888672,-0.3818482756614685
1747558311661960400,10.87396044921875,-0.16216595470905304,0.15468597412109375,-0.3277861475944519
1747558311671960300,10.883960205078125,0.27796149253845215,0.300994873046875,-0.3944932520389557
1747558311681960400,10.89396044921875,0.5453373193740845,0.44727516174316406,-0.4443950355052948
1747558311691960300,10.903960205078125,0.4526958465576172,0.6078548431396484,-0.5232788920402527
1747558311701960400,10.91396044921875,0.15709638595581055,0.6031255722045898,-0.6432338953018188
1747558311711960300,10.923960205078124,-0.055415309965610504,0.6772747039794922,-0.7280953526496887
1747558311721960400,10.93396044921875,-0.047160983085632324,0.6748161315917969,-0.6808168888092041
1747558311741960400,10.95396044921875,0.13851968944072723,0.8279628753662109,-0.2581312954425812
1747558311751960300,10.963960205078125,-0.14261049032211304,0.8542547225952148,-0.12401333451271057
1747558311761960400,10.97396044921875,-0.38915860652923584,1.0289087295532227,-0.16193535923957825
1747558311771960300,10.983960205078125,-1.028113603591919,1.3759689331054688,-0.12060469388961792
1747558311781960400,10.99396044921875,-1.8587557077407837,1.4069910049438477,-0.07994973659515381
1747558311791960300,11.003960205078124,-2.7226858139038086,1.5457849502563477,-0.19387568533420563
1747558311801960400,11.01396044921875,-2.8397231101989746,1.624791145324707,-0.4085807800292969
1747558311811960300,11.023960205078126,-1.7668033838272095,1.6657400131225586,-0.40464580059051514
1747558311821960400,11.03396044921875,-0.18376901745796204,1.7095775604248047,-0.3202718198299408
1747558311831960300,11.043960205078125,1.2002248764038086,1.526601791381836,-0.0252189040184021
1747558311841960400,11.05396044921875,2.3835277557373047,1.2676753997802734,0.4770212769508362
1747558311851960300,11.063960205078125,2.89115309715271,1.044987678527832,0.8776772022247314
1747558311861960400,11.07396044921875,3.135488748550415,0.759521484375,1.1149240732192993
1747558311871960300,11.083960205078125,3.2558393478393555,0.39452648162841797,1.320999026298523
1747558311881960400,11.09396044921875,3.3160946369171143,0.22521305084228516,1.314843773841858
1747558311891960300,11.103960205078126,3.0884203910827637,-0.07647991180419922,1.2483794689178467
1747558311901960400,11.11396044921875,2.195565938949585,-0.3980541229248047,1.1042721271514893
1747558311911960300,11.123960205078125,0.758175790309906,-0.5886440277099609,0.9848662614822388
1747558311921960400,11.13396044921875,-0.3511722683906555,-0.6481590270996094,0.9734674692153931
1747558311931960300,11.143960205078125,-1.4531906843185425,-0.590296745300293,0.8268404006958008
1747558311941960400,11.15396044921875,-2.1437721252441406,-0.4912881851196289,0.5163906216621399
1747558311951960300,11.163960205078125,-2.190692901611328,-0.37493133544921875,0.2997235357761383
1747558311961960400,11.17396044921875,-1.539878249168396,-0.2268381118774414,0.16231852769851685
1747558311971960300,11.183960205078124,-0.661132276058197,-0.221893310546875,0.05745674669742584
1747558311981960400,11.19396044921875,0.3049541413784027,-0.18791866302490234,0.1425134539604187
1747558311991960300,11.203960205078126,1.0076987743377686,-0.24455547332763672,0.18597762286663055
1747558312001960400,11.21396044921875,1.469424843788147,-0.3250093460083008,0.28152650594711304
1747558312011960300,11.223960205078125,1.6813914775848389,-0.3766918182373047,0.3397209048271179
1747558312021960400,11.23396044921875,1.8137519359588623,-0.5146446228027344,0.3486112058162689
1747558312031960300,11.243960205078125,1.7151691913604736,-0.6861295700073242,0.27551090717315674
1747558312041960400,11.25396044921875,1.5512676239013672,-0.9033098220825195,0.16109511256217957
1747558312051960300,11.263960205078124,1.212251901626587,-1.1327075958251953,0.04869388788938522
1747558312061960400,11.27396044921875,0.8357564210891724,-1.307328224182129,-0.05219751596450806
1747558312071960300,11.283960205078126,0.42215052247047424,-1.5087356567382812,-0.1509244292974472
1747558312081960400,11.29396044921875,0.07686695456504822,-1.6337528228759766,-0.1838826984167099
1747558312091960300,11.303960205078125,-0.5882937908172607,-1.6607952117919922,-0.16840778291225433
1747558312101960400,11.31396044921875,-1.1978163719177246,-1.6712427139282227,-0.176036074757576
1747558312111960300,11.323960205078125,-1.7649867534637451,-1.6648893356323242,-0.30484718084335327
1747558312121960400,11.33396044921875,-2.1185896396636963,-1.6703472137451172,-0.28434914350509644
1747558312131960300,11.343960205078124,-2.0746076107025146,-1.5032453536987305,-0.23233839869499207
1747558312141960400,11.35396044921875,-1.6659890413284302,-1.4075984954833984,-0.2710626721382141
1747558312151960300,11.363960205078126,-1.2470464706420898,-1.2686643600463867,-0.2691109776496887
1747558312161960400,11.37396044921875,-1.001092791557312,-1.0650062561035156,-0.10729163885116577
1747558312171960300,11.383960205078125,-1.0500918626785278,-0.9140224456787109,0.0968962013721466
1747558312181960400,11.39396044921875,-1.0292205810546875,-0.6840152740478516,0.1552531123161316
1747558312191960300,11.403960205078125,-0.8874869346618652,-0.4779062271118164,0.21491320431232452
1747558312201960400,11.41396044921875,-0.7696446180343628,-0.3003978729248047,0.23751989006996155
1747558312211960300,11.423960205078124,-0.6529597640037537,0.018446922302246094,0.1551058143377304
1747558312221960400,11.43396044921875,-0.5830997228622437,0.1218099594116211,0.1714668720960617
1747558312231960300,11.443960205078126,-0.251159131526947,0.3066892623901367,0.03776010870933533
1747558312241960400,11.45396044921875,-0.08796936273574829,0.5993738174438477,0.09700930118560791
1747558312251960300,11.463960205078125,0.23351037502288818,0.827397346496582,0.2695285975933075
1747558312261960400,11.47396044921875,0.5928040146827698,1.1152372360229492,0.48969578742980957
1747558312271960300,11.483960205078125,0.9279801845550537,1.1971111297607422,0.5694514513015747
1747558312281960400,11.49396044921875,0.9969456791877747,1.3193540573120117,0.48041653633117676
1747558312291960300,11.503960205078124,0.9550859332084656,1.302511215209961,0.17547199130058289
1747558312301960400,11.51396044921875,0.7830427885055542,1.2663650512695312,0.00828501582145691
1747558312311960300,11.523960205078126,0.21816635131835938,1.3258466720581055,-0.09796148538589478
1747558312321960400,11.53396044921875,-0.86162269115448,1.7586898803710938,-0.07410478591918945
1747558312331960300,11.543960205078125,-2.0783724784851074,1.8731021881103516,-0.23426029086112976
1747558312341960400,11.55396044921875,-3.323214530944824,1.767319679260254,-0.5859799981117249
1747558312351960300,11.563960205078125,-3.625253677368164,1.9035835266113281,-0.8846087455749512
1747558312361960400,11.57396044921875,-2.502864122390747,1.958939552307129,-1.1360317468643188
1747558312371960300,11.583960205078125,-0.2044067233800888,1.9692649841308594,-1.2413859367370605
1747558312381960400,11.59396044921875,1.4563497304916382,1.7765922546386719,-1.28663170337677
1747558312391960300,11.603960205078126,2.7501728534698486,1.3423881530761719,-1.0977438688278198
1747558312401960400,11.61396044921875,3.5176167488098145,0.9990472793579102,-0.6797200441360474
1747558312411960300,11.623960205078125,3.6320035457611084,0.676783561706543,-0.31620705127716064
1747558312421960400,11.63396044921875,3.256561279296875,0.40639591217041016,-0.13889992237091064
1747558312431960300,11.643960205078125,2.360414505004883,0.12764835357666016,-0.2812909185886383
1747558312441960400,11.65396044921875,1.199528694152832,-0.26662254333496094,-0.5769041180610657
1747558312451960300,11.663960205078125,-0.18287615478038788,-0.440948486328125,-0.8621864318847656
1747558312461960400,11.67396044921875,-1.4007798433303833,-0.5769195556640625,-1.1117424964904785
1747558312471960300,11.683960205078124,-2.2450802326202393,-0.6431398391723633,-1.3511886596679688
1747558312481960400,11.69396044921875,-2.617706298828125,-0.7041139602661133,-1.4445313215255737
1747558312491960300,11.703960205078126,-2.3440096378326416,-0.7431192398071289,-1.3851020336151123
1747558312501960400,11.71396044921875,-1.5333420038223267,-0.7194700241088867,-1.1333709955215454
1747558312511960300,11.723960205078125,-0.5639885067939758,-0.6523866653442383,-0.8038438558578491
1747558312521960400,11.73396044921875,0.1939031481742859,-0.7025842666625977,-0.5417664647102356
1747558312531960300,11.743960205078125,0.9834187030792236,-0.7405900955200195,-0.2935571074485779
1747558312541960400,11.75396044921875,1.473294734954834,-0.761652946472168,-0.060334935784339905
1747558312551960300,11.763960205078124,1.6181573867797852,-0.8257207870483398,0.2540063261985779
1747558312561960400,11.77396044921875,1.5085115432739258,-0.9377288818359375,0.4240832030773163
1747558312571960300,11.783960205078126,1.2231982946395874,-1.0977210998535156,0.4341106712818146
1747558312581960400,11.79396044921875,0.9363450407981873,-1.3057327270507812,0.5093924403190613
1747558312591960300,11.803960205078125,0.6494148969650269,-1.6311759948730469,0.44622987508773804
1747558312601960400,11.81396044921875,0.3718298673629761,-1.6694631576538086,0.500902533531189
1747558312611960300,11.823960205078125,-0.04268792271614075,-1.865884780883789,0.49555766582489014
1747558312621960400,11.83396044921875,-0.2744707465171814,-1.8947858810424805,0.47179949283599854
1747558312631960300,11.843960205078124,-0.47314590215682983,-1.9715938568115234,0.1980944573879242
1747558312641960400,11.85396044921875,-0.8247270584106445,-1.9502959251403809,-0.04555851221084595
1747558312651960300,11.863960205078126,-1.2613234519958496,-1.878751277923584,-0.23055267333984375
1747558312661960400,11.87396044921875,-1.952656865119934,-1.7162256240844727,-0.32476329803466797
1747558312671960300,11.883960205078125,-2.2741024494171143,-1.5129690170288086,-0.27020925283432007
1747558312681960400,11.89396044921875,-2.5101702213287354,-1.304819107055664,-0.15537583827972412
1747558312691960300,11.903960205078125,-2.328157424926758,-1.0247468948364258,-0.016757652163505554
1747558312701960400,11.91396044921875,-1.844905138015747,-0.7253808975219727,-0.02186228334903717
1747558312711960300,11.923960205078124,-1.316625952720642,-0.4784841537475586,-0.05109305679798126
1747558312721960400,11.93396044921875,-0.7862567901611328,-0.27934741973876953,-0.04067397117614746
1747558312731960300,11.943960205078126,-0.4821212887763977,0.01803874969482422,-0.14288492500782013
1747558312741960400,11.95396044921875,-0.33231619000434875,0.1334390640258789,-0.17900632321834564
1747558312751960300,11.963960205078125,-0.14111322164535522,0.35657596588134766,-0.318852037191391
1747558312761960400,11.97396044921875,0.1432075798511505,0.5509767532348633,-0.4760834276676178
1747558312771960300,11.983960205078125,0.6223275661468506,0.7956781387329102,-0.6513768434524536
1747558312781960400,11.99396044921875,0.936700701713562,0.8943271636962891,-0.6259192228317261
1747558312791960300,12.003960205078124,1.0722514390945435,0.9617538452148438,-0.5508019924163818
1747558312801960400,12.01396044921875,1.1684662103652954,1.0577507019042969,-0.4671463966369629
1747558312811960300,12.023960205078126,1.2402383089065552,0.9764232635498047,-0.40619826316833496
1747558312821960400,12.03396044921875,1.2120070457458496,0.882899284362793,-0.3028697073459625
1747558312831960300,12.043960205078125,1.0821181535720825,0.8681621551513672,-0.23354017734527588
1747558312841960400,12.05396044921875,0.3299594223499298,0.7909107208251953,-0.10495002567768097
1747558312851960300,12.063960205078125,-0.728670597076416,0.8187427520751953,0.0902726873755455
1747558312861960400,12.07396044921875,-2.0969431400299072,0.9516963958740234,0.022887244820594788
1747558312871960300,12.083960205078125,-3.483405351638794,1.075272560119629,0.27033817768096924
1747558312881960400,12.09396044921875,-4.272608757019043,1.2661762237548828,0.42443013191223145
1747558312891960300,12.103960205078126,-4.0853495597839355,1.6633939743041992,0.4142790138721466
1747558312901960400,12.11396044921875,-2.854628562927246,1.963017463684082,0.43285685777664185
1747558312911960300,12.123960205078125,-0.7969734072685242,2.220243453979492,0.8330807685852051
1747558312921960400,12.13396044921875,0.8606109619140625,2.1264829635620117,0.9485293626785278
1747558312931960300,12.143960205078125,2.7801103591918945,1.8517370223999023,1.0549170970916748
1747558312941960400,12.15396044921875,4.528576850891113,1.5177173614501953,1.158821940422058
1747558312951960300,12.163960205078125,5.867711067199707,1.1908607482910156,1.0747390985488892
1747558312961960400,12.17396044921875,6.0214056968688965,0.8176002502441406,1.181956171989441
1747558312971960300,12.183960205078124,4.90391731262207,0.4019184112548828,1.1757876873016357
1747558312981960400,12.19396044921875,2.6444687843322754,0.096832275390625,0.9302949905395508
1747558312991960300,12.203960205078126,0.9064046740531921,-0.03735828399658203,0.6276832818984985
1747558313001960400,12.21396044921875,-0.8094824552536011,-0.2725353240966797,0.3697440028190613
1747558313011960300,12.223960205078125,-2.0888242721557617,-0.30120849609375,0.1800192892551422
1747558313021960400,12.23396044921875,-2.7539267539978027,-0.2475128173828125,-0.058082789182662964
1747558313031960300,12.243960205078125,-2.5295286178588867,-0.2095470428466797,-0.1541655957698822
1747558313041960400,12.25396044921875,-1.7744076251983643,-0.18996334075927734,-0.19042199850082397
1747558313051960300,12.263960205078124,-0.6309840679168701,-0.2058553695678711,-0.24571344256401062
1747558313061960400,12.27396044921875,0.30279871821403503,-0.26218223571777344,-0.3749614357948303
1747558313071960300,12.283960205078126,0.7946671843528748,-0.33530712127685547,-0.41803106665611267
1747558313081960400,12.29396044921875,0.8840774297714233,-0.36797332763671875,-0.34403088688850403
1747558313091960300,12.303960205078125,0.8722630739212036,-0.4966878890991211,-0.23092356324195862
1747558313101960400,12.31396044921875,0.8817921876907349,-0.5824813842773438,-0.19210636615753174
1747558313111960300,12.323960205078125,0.8785697221755981,-0.6491756439208984,-0.175630122423172
1747558313121960400,12.33396044921875,1.0131137371063232,-0.7709674835205078,-0.12549477815628052
1747558313131960300,12.343960205078124,1.1101137399673462,-0.9191188812255859,-0.10618570446968079
1747558313141960400,12.35396044921875,1.2996680736541748,-1.0745983123779297,-0.013061732053756714
1747558313151960300,12.363960205078126,1.2605650424957275,-1.220672607421875,0.011994689702987671
1747558313161960400,12.37396044921875,0.8593822717666626,-1.5250730514526367,0.2151666134595871
1747558313171960300,12.383960205078125,0.33002838492393494,-1.6143207550048828,0.19200199842453003
1747558313181960400,12.39396044921875,-0.3475695848464966,-1.7540712356567383,0.13537731766700745
1747558313191960300,12.403960205078125,-0.8652738928794861,-1.8005428314208984,0.06177636981010437
1747558313201960400,12.41396044921875,-1.1870912313461304,-1.806187629699707,0.08485767245292664
1747558313211960300,12.423960205078124,-1.516871452331543,-1.8307466506958008,0.1611626148223877
1747558313221960400,12.43396044921875,-1.672700047492981,-1.6971769332885742,0.2689385414123535
1747558313231960300,12.443960205078126,-1.6754791736602783,-1.5921831130981445,0.28840458393096924
1747558313241960400,12.45396044921875,-1.4400322437286377,-1.522902488708496,0.2586827874183655
1747558313251960300,12.463960205078125,-1.4078786373138428,-1.374476432800293,0.11292728781700134
